trials1.thisRepN,trials1.thisTrialN,trials1.thisN,trials1.thisIndex,trials2.thisRepN,trials2.thisTrialN,trials2.thisN,trials2.thisIndex,instr1.started,instr1.stopped,instr1Resp.keys,instr1Resp.rt,instr1Resp.started,instr1Resp.stopped,fix1.started,fix1.stopped,trial1Mouse.x,trial1Mouse.y,trial1Mouse.leftButton,trial1Mouse.midButton,trial1Mouse.rightButton,trial1Mouse.time,trial1Mouse.started,trial1Mouse.stopped,step,targetangle_deg,trial1Target.started,trial1Target.stopped,trial1Home.started,trial1Home.stopped,trial1Cursor.started,trial1Cursor.stopped,trial1Num.started,trial1Num.stopped,trial1Skip.keys,trial1Skip.rt,trial1Skip.started,trial1Skip.stopped,instr2.started,instr2.stopped,instr2Resp.keys,instr2Resp.rt,instr2Resp.started,instr2Resp.stopped,fix2.started,fix2.stopped,trial2Mouse.x,trial2Mouse.y,trial2Mouse.leftButton,trial2Mouse.midButton,trial2Mouse.rightButton,trial2Mouse.time,trial2Mouse.started,trial2Mouse.stopped,trial2Target.started,trial2Target.stopped,trial2Home.started,trial2Home.stopped,trial2Cursor.started,trial2Cursor.stopped,trial2Num.started,trial2Num.stopped,participant,session,date,expName,psychopyVersion,frameRate,
,,,,,,,,11.455490399966948,None,space,0.48100559995509684,11.455490399966948,None,,,,,,,,,,,,,,,,,,,,,,,,,,,,,,,,,,,,,,,,,,,,,,,,,a,001,2020_May_28_1529,mousePos2,2020.1.3,59.97969087564203,
0,0,0,0,,,,,,,,,,,11.962661299970932,None,"[-0.1953125, -0.1953125, -0.1953125, -0.1953125, -0.1953125, -0.19401041666666666, -0.19140625, -0.18359375, -0.17317708333333334, -0.1640625, -0.16015625, -0.15625, -0.15494791666666666, -0.15364583333333334, -0.15234375, -0.1484375, -0.14453125, -0.13932291666666666, -0.13411458333333334, -0.12369791666666667, -0.10807291666666667, -0.08333333333333333, -0.0625, -0.046875, -0.0390625, -0.033854166666666664, -0.032552083333333336, -0.029947916666666668, -0.029947916666666668, -0.029947916666666668, -0.029947916666666668, -0.029947916666666668, -0.029947916666666668, -0.029947916666666668, -0.029947916666666668, -0.03125, -0.03125, -0.032552083333333336, -0.033854166666666664, -0.033854166666666664, -0.03515625, -0.037760416666666664, -0.0390625, -0.04296875, -0.045572916666666664]","[0.09765625, 0.09765625, 0.09765625, 0.09765625, 0.09765625, 0.09765625, 0.09765625, 0.09765625, 0.09765625, 0.09635416666666667, 0.09635416666666667, 0.09505208333333333, 0.09505208333333333, 0.09505208333333333, 0.09505208333333333, 0.09375, 0.09244791666666667, 0.08984375, 0.08333333333333333, 0.0703125, 0.049479166666666664, 0.022135416666666668, 0.006510416666666667, 0.0013020833333333333, 0.0, 0.0013020833333333333, 0.00390625, 0.006510416666666667, 0.0078125, 0.0078125, 0.009114583333333334, 0.009114583333333334, 0.009114583333333334, 0.009114583333333334, 0.009114583333333334, 0.009114583333333334, 0.009114583333333334, 0.010416666666666666, 0.01171875, 0.01171875, 0.013020833333333334, 0.013020833333333334, 0.014322916666666666, 0.015625, 0.018229166666666668]","[0, 0, 0, 0, 0, 0, 0, 0, 0, 0, 0, 0, 0, 0, 0, 0, 0, 0, 0, 0, 0, 0, 0, 0, 0, 0, 0, 0, 0, 0, 0, 0, 0, 0, 0, 0, 0, 0, 0, 0, 0, 0, 0, 0, 0]","[0, 0, 0, 0, 0, 0, 0, 0, 0, 0, 0, 0, 0, 0, 0, 0, 0, 0, 0, 0, 0, 0, 0, 0, 0, 0, 0, 0, 0, 0, 0, 0, 0, 0, 0, 0, 0, 0, 0, 0, 0, 0, 0, 0, 0]","[0, 0, 0, 0, 0, 0, 0, 0, 0, 0, 0, 0, 0, 0, 0, 0, 0, 0, 0, 0, 0, 0, 0, 0, 0, 0, 0, 0, 0, 0, 0, 0, 0, 0, 0, 0, 0, 0, 0, 0, 0, 0, 0, 0, 0]","[0.005234700045548379, 0.017978399991989136, 0.03013570001348853, 0.04698610003106296, 0.06344639998860657, 0.08058960002381355, 0.09712960000615567, 0.11379730002954602, 0.13046470005065203, 0.14707360009197146, 0.16324320004787296, 0.18012260005343705, 0.19656960002612323, 0.21329780004452914, 0.2301111000124365, 0.24692150007467717, 0.2632390999933705, 0.28025489998981357, 0.2968699000775814, 0.3136833000462502, 0.33020050008781254, 0.34702200000174344, 0.3634812000673264, 0.38036680000368506, 0.396862699999474, 0.4136494999984279, 0.43071330001112074, 0.4470938000595197, 0.46318600000813603, 0.4798385000322014, 0.4966838000109419, 0.5132807000773028, 0.5301699000410736, 0.5471344999969006, 0.5632566000567749, 0.5798817999893799, 0.5969119000947103, 0.61353189998772, 0.629852700047195, 0.6470610999967903, 0.6635051000630483, 0.6801269000861794, 0.6968180000549182, 0.7136597000062466, 0.7306993000674993]",12.965851799934171,None,"[1, 1, 1, 1, 1, 1, 1, 1, 1, 1, 1, 1, 1, 1, 1, 1, 1, 1, 1, 1, 1, 1, 1, 1, 1, 1, 1, 1, 1, 1, 1, 1, 1, 1, 1, 1, 1, 1, 1, 1, 1, 1, 1, 1, 1]",30,12.965851799934171,None,12.965851799934171,None,12.965851799934171,None,12.965851799934171,None,space,0.7055511999642476,12.965851799934171,None,,,,,,,,,,,,,,,,,,,,,,,,,a,001,2020_May_28_1529,mousePos2,2020.1.3,59.97969087564203,
1,0,1,0,,,,,,,,,,,,,"[-0.048177083333333336, -0.05078125, -0.05078125, -0.052083333333333336, -0.052083333333333336, -0.052083333333333336, -0.052083333333333336, -0.052083333333333336, -0.052083333333333336, -0.052083333333333336, -0.052083333333333336]","[0.018229166666666668, 0.01953125, 0.020833333333333332, 0.020833333333333332, 0.020833333333333332, 0.020833333333333332, 0.020833333333333332, 0.020833333333333332, 0.020833333333333332, 0.020833333333333332, 0.020833333333333332]","[0, 0, 0, 0, 0, 0, 0, 0, 0, 0, 0]","[0, 0, 0, 0, 0, 0, 0, 0, 0, 0, 0]","[0, 0, 0, 0, 0, 0, 0, 0, 0, 0, 0]","[0.0059655000222846866, 0.017624299973249435, 0.03043479996267706, 0.046690299990586936, 0.06409930007066578, 0.08000279997941107, 0.0967345000244677, 0.11344370001461357, 0.13009700004477054, 0.1467810000758618, 0.16350090003106743]",13.714290599920787,None,"[1, 1, 1, 1, 1, 1, 1, 1, 1, 1, 1]",60,13.714290599920787,None,13.714290599920787,None,13.714290599920787,None,13.714290599920787,None,space,0.14914529991801828,13.714290599920787,None,,,,,,,,,,,,,,,,,,,,,,,,,a,001,2020_May_28_1529,mousePos2,2020.1.3,59.97969087564203,
2,0,2,0,,,,,,,,,,,,,"[-0.052083333333333336, -0.052083333333333336, -0.052083333333333336, -0.052083333333333336, -0.052083333333333336, -0.052083333333333336, -0.052083333333333336, -0.052083333333333336, -0.052083333333333336, -0.052083333333333336, -0.052083333333333336, -0.052083333333333336]","[0.020833333333333332, 0.020833333333333332, 0.020833333333333332, 0.020833333333333332, 0.020833333333333332, 0.020833333333333332, 0.020833333333333332, 0.020833333333333332, 0.020833333333333332, 0.020833333333333332, 0.020833333333333332, 0.020833333333333332]","[0, 0, 0, 0, 0, 0, 0, 0, 0, 0, 0, 0]","[0, 0, 0, 0, 0, 0, 0, 0, 0, 0, 0, 0]","[0, 0, 0, 0, 0, 0, 0, 0, 0, 0, 0, 0]","[0.005833499948494136, 0.016618299996480346, 0.03592569997999817, 0.05327579996082932, 0.06993660004809499, 0.08712050004396588, 0.10319870000239462, 0.12031619995832443, 0.13660099997650832, 0.153456800035201, 0.17001070000696927, 0.186582800000906]",13.890516699990258,None,"[1, 1, 1, 1, 1, 1, 1, 1, 1, 1, 1, 1]",30,13.890516699990258,None,13.890516699990258,None,13.890516699990258,None,13.890516699990258,None,space,0.17283910000696778,13.890516699990258,None,,,,,,,,,,,,,,,,,,,,,,,,,a,001,2020_May_28_1529,mousePos2,2020.1.3,59.97969087564203,
3,0,3,0,,,,,,,,,,,,,"[-0.052083333333333336, -0.052083333333333336, -0.052083333333333336, -0.052083333333333336, -0.052083333333333336, -0.052083333333333336, -0.052083333333333336, -0.052083333333333336, -0.052083333333333336, -0.052083333333333336, -0.052083333333333336]","[0.020833333333333332, 0.020833333333333332, 0.020833333333333332, 0.020833333333333332, 0.020833333333333332, 0.020833333333333332, 0.020833333333333332, 0.020833333333333332, 0.020833333333333332, 0.020833333333333332, 0.020833333333333332]","[0, 0, 0, 0, 0, 0, 0, 0, 0, 0, 0]","[0, 0, 0, 0, 0, 0, 0, 0, 0, 0, 0]","[0, 0, 0, 0, 0, 0, 0, 0, 0, 0, 0]","[0.0034133000299334526, 0.014210700057446957, 0.036226100055500865, 0.053577200043946505, 0.07031560002360493, 0.08692050003446639, 0.10357679997105151, 0.12048410007264465, 0.13719240005593747, 0.1536632999777794, 0.1703193000284955]",14.08821249997709,None,"[1, 1, 1, 1, 1, 1, 1, 1, 1, 1, 1]",60,14.08821249997709,None,14.08821249997709,None,14.08821249997709,None,14.08821249997709,None,space,0.15926360001321882,14.08821249997709,None,,,,,,,,,,,,,,,,,,,,,,,,,a,001,2020_May_28_1529,mousePos2,2020.1.3,59.97969087564203,
4,0,4,0,,,,,,,,,,,,,"[-0.052083333333333336, -0.052083333333333336, -0.052083333333333336, -0.052083333333333336, -0.052083333333333336, -0.052083333333333336, -0.052083333333333336, -0.052083333333333336, -0.052083333333333336, -0.052083333333333336, -0.052083333333333336, -0.05859375]","[0.020833333333333332, 0.020833333333333332, 0.020833333333333332, 0.020833333333333332, 0.020833333333333332, 0.020833333333333332, 0.020833333333333332, 0.020833333333333332, 0.022135416666666668, 0.022135416666666668, 0.022135416666666668, 0.0234375]","[0, 0, 0, 0, 0, 0, 0, 0, 0, 0, 0, 0]","[0, 0, 0, 0, 0, 0, 0, 0, 0, 0, 0, 0]","[0, 0, 0, 0, 0, 0, 0, 0, 0, 0, 0, 0]","[0.0037407000781968236, 0.015090700006112456, 0.03573380003217608, 0.05301600007805973, 0.06981990009080619, 0.08697110007051378, 0.10311430005822331, 0.11991800006944686, 0.13631660002283752, 0.1529791000066325, 0.17010190000291914, 0.1862679000478238]",14.272186399903148,None,"[1, 1, 1, 1, 1, 1, 1, 1, 1, 1, 1, 1]",30,14.272186399903148,None,14.272186399903148,None,14.272186399903148,None,14.272186399903148,None,space,0.1752198999747634,14.272186399903148,None,,,,,,,,,,,,,,,,,,,,,,,,,a,001,2020_May_28_1529,mousePos2,2020.1.3,59.97969087564203,
5,0,5,0,,,,,,,,,,,,,"[-0.05859375, -0.05859375, -0.05859375, -0.05859375, -0.05859375, -0.05859375, -0.05859375, -0.05859375, -0.05859375, -0.05859375, -0.05859375, -0.05859375, -0.05859375, -0.05859375, -0.05859375, -0.05859375, -0.05859375, -0.05859375, -0.05859375, -0.05859375, -0.05859375, -0.05859375]","[0.0234375, 0.0234375, 0.0234375, 0.0234375, 0.0234375, 0.0234375, 0.0234375, 0.0234375, 0.0234375, 0.0234375, 0.0234375, 0.0234375, 0.0234375, 0.0234375, 0.0234375, 0.0234375, 0.0234375, 0.0234375, 0.0234375, 0.0234375, 0.0234375, 0.0234375]","[0, 0, 0, 0, 0, 0, 0, 0, 0, 0, 0, 0, 0, 0, 0, 0, 0, 0, 0, 0, 0, 0]","[0, 0, 0, 0, 0, 0, 0, 0, 0, 0, 0, 0, 0, 0, 0, 0, 0, 0, 0, 0, 0, 0]","[0, 0, 0, 0, 0, 0, 0, 0, 0, 0, 0, 0, 0, 0, 0, 0, 0, 0, 0, 0, 0, 0]","[0.005849200068041682, 0.017172600026242435, 0.035946000018157065, 0.05321630008984357, 0.0700470000738278, 0.08656540000811219, 0.1038052000803873, 0.11996010004077107, 0.13662120001390576, 0.1535431999946013, 0.16994679998606443, 0.18659040005877614, 0.20331940008327365, 0.21999090001918375, 0.2366586000425741, 0.2533449000911787, 0.2699205999961123, 0.2864464999875054, 0.303305400069803, 0.3199218000518158, 0.33646390005014837, 0.3531967999879271]",14.474080299958587,None,"[1, 1, 1, 1, 1, 1, 1, 1, 1, 1, 1, 1, 1, 1, 1, 1, 1, 1, 1, 1, 1, 1]",60,14.474080299958587,None,14.474080299958587,None,14.474080299958587,None,14.474080299958587,None,space,0.32534850004594773,14.474080299958587,None,,,,,,,,,,,,,,,,,,,,,,,,,a,001,2020_May_28_1529,mousePos2,2020.1.3,59.97969087564203,
6,0,6,0,,,,,,,,,,,,,"[-0.05859375, -0.05859375, -0.05859375, -0.05859375, -0.05859375, -0.05859375, -0.05859375, -0.05859375, -0.05859375, -0.05859375, -0.05859375]","[0.0234375, 0.0234375, 0.0234375, 0.0234375, 0.0234375, 0.0234375, 0.0234375, 0.0234375, 0.0234375, 0.0234375, 0.0234375]","[0, 0, 0, 0, 0, 0, 0, 0, 0, 0, 0]","[0, 0, 0, 0, 0, 0, 0, 0, 0, 0, 0]","[0, 0, 0, 0, 0, 0, 0, 0, 0, 0, 0]","[0.005204900051467121, 0.016777300043031573, 0.03654909995384514, 0.05391829996369779, 0.07106200000271201, 0.0871101999655366, 0.10386379994452, 0.12049260002095252, 0.13711999997030944, 0.15392730000894517, 0.1705097999656573]",14.839402099954896,None,"[1, 1, 1, 1, 1, 1, 1, 1, 1, 1, 1]",30,14.839402099954896,None,14.839402099954896,None,14.839402099954896,None,14.839402099954896,None,space,0.1439788999268785,14.839402099954896,None,,,,,,,,,,,,,,,,,,,,,,,,,a,001,2020_May_28_1529,mousePos2,2020.1.3,59.97969087564203,
7,0,7,0,,,,,,,,,,,,,"[-0.05859375, -0.05859375, -0.05859375, -0.05859375, -0.05859375, -0.05859375, -0.05859375, -0.05859375, -0.05859375, -0.05859375, -0.05859375, -0.05859375, -0.05859375]","[0.0234375, 0.0234375, 0.0234375, 0.0234375, 0.0234375, 0.0234375, 0.0234375, 0.0234375, 0.0234375, 0.0234375, 0.0234375, 0.0234375, 0.0234375]","[0, 0, 0, 0, 0, 0, 0, 0, 0, 0, 0, 0, 0]","[0, 0, 0, 0, 0, 0, 0, 0, 0, 0, 0, 0, 0]","[0, 0, 0, 0, 0, 0, 0, 0, 0, 0, 0, 0, 0]","[0.005423499969765544, 0.016991600045002997, 0.034951900015585124, 0.052505900035612285, 0.06917569995857775, 0.08583740005269647, 0.10238900000695139, 0.11912100005429238, 0.13580060005187988, 0.152409499976784, 0.16915410000365227, 0.18557870003860444, 0.20277600002009422]",15.024581799982116,None,"[1, 1, 1, 1, 1, 1, 1, 1, 1, 1, 1, 1, 1]",60,15.024581799982116,None,15.024581799982116,None,15.024581799982116,None,15.024581799982116,None,space,0.18288450001273304,15.024581799982116,None,,,,,,,,,,,,,,,,,,,,,,,,,a,001,2020_May_28_1529,mousePos2,2020.1.3,59.97969087564203,
8,0,8,0,,,,,,,,,,,,,"[-0.05859375, -0.05859375, -0.05859375, -0.05859375, -0.05859375, -0.05859375, -0.05859375, -0.05859375, -0.05859375, -0.05859375, -0.05859375, -0.05859375, -0.05859375, -0.05859375, -0.05859375, -0.05859375]","[0.0234375, 0.0234375, 0.0234375, 0.0234375, 0.0234375, 0.0234375, 0.0234375, 0.0234375, 0.0234375, 0.0234375, 0.0234375, 0.0234375, 0.0234375, 0.0234375, 0.0234375, 0.0234375]","[0, 0, 0, 0, 0, 0, 0, 0, 0, 0, 0, 0, 0, 0, 0, 0]","[0, 0, 0, 0, 0, 0, 0, 0, 0, 0, 0, 0, 0, 0, 0, 0]","[0, 0, 0, 0, 0, 0, 0, 0, 0, 0, 0, 0, 0, 0, 0, 0]","[0.005680999951437116, 0.016429099952802062, 0.03578759997617453, 0.053086499916389585, 0.06979589990805835, 0.08639079995919019, 0.10365740000270307, 0.11961109994444996, 0.13692219997756183, 0.15306799998506904, 0.16972809995058924, 0.18639719998463988, 0.20338039996568114, 0.2197411999804899, 0.2364280999172479, 0.25343119993340224]",15.240598899894394,None,"[1, 1, 1, 1, 1, 1, 1, 1, 1, 1, 1, 1, 1, 1, 1, 1]",30,15.240598899894394,None,15.240598899894394,None,15.240598899894394,None,15.240598899894394,None,space,0.23080099991057068,15.240598899894394,None,,,,,,,,,,,,,,,,,,,,,,,,,a,001,2020_May_28_1529,mousePos2,2020.1.3,59.97969087564203,
9,0,9,0,,,,,,,,,,,,,"[-0.05859375, -0.05859375, -0.05859375, -0.05859375, -0.05859375, -0.05859375, -0.05859375, -0.05859375, -0.05859375, -0.05859375, -0.05859375, -0.05859375, -0.05859375, -0.05859375, -0.05859375]","[0.0234375, 0.0234375, 0.0234375, 0.0234375, 0.0234375, 0.0234375, 0.0234375, 0.0234375, 0.0234375, 0.0234375, 0.0234375, 0.0234375, 0.0234375, 0.0234375, 0.0234375]","[0, 0, 0, 0, 0, 0, 0, 0, 0, 0, 0, 0, 0, 0, 0]","[0, 0, 0, 0, 0, 0, 0, 0, 0, 0, 0, 0, 0, 0, 0]","[0, 0, 0, 0, 0, 0, 0, 0, 0, 0, 0, 0, 0, 0, 0]","[0.005766700021922588, 0.01608299999497831, 0.035260200034826994, 0.05232190003152937, 0.06906709994655102, 0.08570559998042881, 0.10240979993250221, 0.1191918000113219, 0.13571199995931238, 0.15280229994095862, 0.1691628999542445, 0.18589379999320954, 0.20520359999500215, 0.21901849994901568, 0.23610330000519753]",15.507611199980602,None,"[1, 1, 1, 1, 1, 1, 1, 1, 1, 1, 1, 1, 1, 1, 1]",60,15.507611199980602,None,15.507611199980602,None,15.507611199980602,None,15.507611199980602,None,space,0.21175859996583313,15.507611199980602,None,,,,,,,,,,,,,,,,,,,,,,,,,a,001,2020_May_28_1529,mousePos2,2020.1.3,59.97969087564203,
10,0,10,0,,,,,,,,,,,,,"[-0.05859375, -0.05859375, -0.05859375, -0.05859375, -0.05859375, -0.05859375]","[0.0234375, 0.0234375, 0.0234375, 0.0234375, 0.0234375, 0.0234375]","[0, 0, 0, 0, 0, 0]","[0, 0, 0, 0, 0, 0]","[0, 0, 0, 0, 0, 0]","[0.0031144999666139483, 0.013427300029434264, 0.03556280001066625, 0.05394459993112832, 0.0695304999826476, 0.08675239991862327]",15.754132599919103,None,"[1, 1, 1, 1, 1, 1]",30,15.754132599919103,None,15.754132599919103,None,15.754132599919103,None,15.754132599919103,None,space,0.06926879996899515,15.754132599919103,None,,,,,,,,,,,,,,,,,,,,,,,,,a,001,2020_May_28_1529,mousePos2,2020.1.3,59.97969087564203,
11,0,11,0,,,,,,,,,,,,,"[-0.05859375, -0.05859375, -0.05859375, -0.05859375, -0.05859375, -0.05859375, -0.05859375, -0.05859375, -0.05859375, -0.05859375, -0.05859375, -0.05859375]","[0.0234375, 0.0234375, 0.0234375, 0.0234375, 0.0234375, 0.0234375, 0.0234375, 0.0234375, 0.0234375, 0.0234375, 0.0234375, 0.0234375]","[0, 0, 0, 0, 0, 0, 0, 0, 0, 0, 0, 0]","[0, 0, 0, 0, 0, 0, 0, 0, 0, 0, 0, 0]","[0, 0, 0, 0, 0, 0, 0, 0, 0, 0, 0, 0]","[0.003682600101456046, 0.01530080009251833, 0.03626500000245869, 0.05368650006130338, 0.07029470009729266, 0.08760130009613931, 0.10359980002976954, 0.12033460009843111, 0.1370577000780031, 0.15353290003258735, 0.1702435000333935, 0.1867340001044795]",15.854945699917153,None,"[1, 1, 1, 1, 1, 1, 1, 1, 1, 1, 1, 1]",60,15.854945699917153,None,15.854945699917153,None,15.854945699917153,None,15.854945699917153,None,space,0.1604405000107363,15.854945699917153,None,,,,,,,,,,,,,,,,,,,,,,,,,a,001,2020_May_28_1529,mousePos2,2020.1.3,59.97969087564203,
12,0,12,0,,,,,,,,,,,,,"[-0.05859375, -0.05859375, -0.05859375, -0.05859375, -0.05859375, -0.05859375, -0.05859375]","[0.0234375, 0.0234375, 0.0234375, 0.0234375, 0.0234375, 0.0234375, 0.0234375]","[0, 0, 0, 0, 0, 0, 0]","[0, 0, 0, 0, 0, 0, 0]","[0, 0, 0, 0, 0, 0, 0]","[0.0030423999996855855, 0.014840299962088466, 0.03542359999846667, 0.0533216999610886, 0.06938560004346073, 0.08608769997954369, 0.10313249996397644]",16.055286999908276,None,"[1, 1, 1, 1, 1, 1, 1]",30,16.055286999908276,None,16.055286999908276,None,16.055286999908276,None,16.055286999908276,None,space,0.0804649000056088,16.055286999908276,None,,,,,,,,,,,,,,,,,,,,,,,,,a,001,2020_May_28_1529,mousePos2,2020.1.3,59.97969087564203,
13,0,13,0,,,,,,,,,,,,,"[-0.05859375, -0.05859375, -0.05859375, -0.05859375, -0.05859375, -0.05859375, -0.05859375, -0.05859375, -0.05859375, -0.05859375]","[0.0234375, 0.0234375, 0.0234375, 0.0234375, 0.0234375, 0.0234375, 0.0234375, 0.0234375, 0.0234375, 0.0234375]","[0, 0, 0, 0, 0, 0, 0, 0, 0, 0]","[0, 0, 0, 0, 0, 0, 0, 0, 0, 0]","[0, 0, 0, 0, 0, 0, 0, 0, 0, 0]","[0.0029560000402852893, 0.014080499997362494, 0.03372579999268055, 0.050926299998536706, 0.06808050000108778, 0.0843174000037834, 0.10099669999908656, 0.1176273999735713, 0.13429590000305325, 0.15171200002077967]",16.17259390000254,None,"[1, 1, 1, 1, 1, 1, 1, 1, 1, 1]",60,16.17259390000254,None,16.17259390000254,None,16.17259390000254,None,16.17259390000254,None,space,0.13081030000466853,16.17259390000254,None,,,,,,,,,,,,,,,,,,,,,,,,,a,001,2020_May_28_1529,mousePos2,2020.1.3,59.97969087564203,
14,0,14,0,,,,,,,,,,,,,"[-0.05859375, -0.05859375, -0.05859375, -0.05859375, -0.05859375, -0.05859375, -0.05859375]","[0.0234375, 0.0234375, 0.0234375, 0.0234375, 0.0234375, 0.0234375, 0.0234375]","[0, 0, 0, 0, 0, 0, 0]","[0, 0, 0, 0, 0, 0, 0]","[0, 0, 0, 0, 0, 0, 0]","[0.0028955000452697277, 0.0139239999698475, 0.035123600042425096, 0.05219650000799447, 0.06890549999661744, 0.08577610005158931, 0.10243500000797212]",16.33780959993601,None,"[1, 1, 1, 1, 1, 1, 1]",30,16.33780959993601,None,16.33780959993601,None,16.33780959993601,None,16.33780959993601,None,space,0.07765250001102686,16.33780959993601,None,,,,,,,,,,,,,,,,,,,,,,,,,a,001,2020_May_28_1529,mousePos2,2020.1.3,59.97969087564203,
15,0,15,0,,,,,,,,,,,,,"[-0.05859375, -0.05859375, -0.05859375, -0.05859375, -0.05859375, -0.05859375, -0.05859375, -0.05859375, -0.05859375, -0.05859375, -0.05859375]","[0.0234375, 0.0234375, 0.0234375, 0.0234375, 0.0234375, 0.0234375, 0.0234375, 0.0234375, 0.0234375, 0.0234375, 0.0234375]","[0, 0, 0, 0, 0, 0, 0, 0, 0, 0, 0]","[0, 0, 0, 0, 0, 0, 0, 0, 0, 0, 0]","[0, 0, 0, 0, 0, 0, 0, 0, 0, 0, 0]","[0.002968000015243888, 0.01412399997934699, 0.036098400014452636, 0.05333489994518459, 0.06998919998295605, 0.08726459997706115, 0.10337259992957115, 0.12001279997639358, 0.13666750001721084, 0.15331399999558926, 0.169902199995704]",16.453715599956922,None,"[1, 1, 1, 1, 1, 1, 1, 1, 1, 1, 1]",60,16.453715599956922,None,16.453715599956922,None,16.453715599956922,None,16.453715599956922,None,space,0.14576069999020547,16.453715599956922,None,,,,,,,,,,,,,,,,,,,,,,,,,a,001,2020_May_28_1529,mousePos2,2020.1.3,59.97969087564203,
16,0,16,0,,,,,,,,,,,,,"[-0.05859375, -0.05859375, -0.05859375, -0.05859375, -0.05859375, -0.05859375]","[0.0234375, 0.0234375, 0.0234375, 0.0234375, 0.0234375, 0.0234375]","[0, 0, 0, 0, 0, 0]","[0, 0, 0, 0, 0, 0]","[0, 0, 0, 0, 0, 0]","[0.003007400082424283, 0.013151900027878582, 0.036399299977347255, 0.05377670004963875, 0.07087900000624359, 0.08744620007928461]",16.636258199927397,None,"[1, 1, 1, 1, 1, 1]",30,16.636258199927397,None,16.636258199927397,None,16.636258199927397,None,16.636258199927397,None,space,0.06716520001646131,16.636258199927397,None,,,,,,,,,,,,,,,,,,,,,,,,,a,001,2020_May_28_1529,mousePos2,2020.1.3,59.97969087564203,
17,0,17,0,,,,,,,,,,,,,"[-0.05859375, -0.05859375, -0.05859375, -0.05859375, -0.05859375, -0.05859375, -0.05859375, -0.05859375, -0.05859375]","[0.0234375, 0.0234375, 0.0234375, 0.0234375, 0.0234375, 0.0234375, 0.0234375, 0.0234375, 0.0234375]","[0, 0, 0, 0, 0, 0, 0, 0, 0]","[0, 0, 0, 0, 0, 0, 0, 0, 0]","[0, 0, 0, 0, 0, 0, 0, 0, 0]","[0.0029546000296249986, 0.014211400062777102, 0.03624160005711019, 0.05342070001643151, 0.07022190000861883, 0.08686799998395145, 0.1035590999526903, 0.12008100003004074, 0.137131700059399]",16.736994799925014,None,"[1, 1, 1, 1, 1, 1, 1, 1, 1]",60,16.736994799925014,None,16.736994799925014,None,16.736994799925014,None,16.736994799925014,None,space,0.11855110002215952,16.736994799925014,None,,,,,,,,,,,,,,,,,,,,,,,,,a,001,2020_May_28_1529,mousePos2,2020.1.3,59.97969087564203,
18,0,18,0,,,,,,,,,,,,,"[-0.05859375, -0.05859375, -0.05859375, -0.05859375, -0.05859375, -0.05859375, -0.05859375, -0.05859375, -0.05859375, -0.05859375, -0.05859375, -0.05859375, -0.05859375]","[0.0234375, 0.0234375, 0.0234375, 0.0234375, 0.0234375, 0.0234375, 0.0234375, 0.0234375, 0.0234375, 0.0234375, 0.0234375, 0.0234375, 0.0234375]","[0, 0, 0, 0, 0, 0, 0, 0, 0, 0, 0, 0, 0]","[0, 0, 0, 0, 0, 0, 0, 0, 0, 0, 0, 0, 0]","[0, 0, 0, 0, 0, 0, 0, 0, 0, 0, 0, 0, 0]","[0.0029115000506863, 0.013489300035871565, 0.03499229997396469, 0.05236720002721995, 0.06952979997731745, 0.08663829998113215, 0.10268779995385557, 0.11901260004378855, 0.13571990001946688, 0.1522916000103578, 0.16897720005363226, 0.18569079996086657, 0.20272199995815754]",16.887879099929705,None,"[1, 1, 1, 1, 1, 1, 1, 1, 1, 1, 1, 1, 1]",30,16.887879099929705,None,16.887879099929705,None,16.887879099929705,None,16.887879099929705,None,space,0.18355810001958162,16.887879099929705,None,,,,,,,,,,,,,,,,,,,,,,,,,a,001,2020_May_28_1529,mousePos2,2020.1.3,59.97969087564203,
19,0,19,0,,,,,,,,,,,,,"[-0.05859375, -0.05859375, -0.05859375, -0.05859375, -0.05859375, -0.05859375, -0.05859375, -0.05859375, -0.05859375, -0.05859375, -0.05859375]","[0.0234375, 0.0234375, 0.0234375, 0.0234375, 0.0234375, 0.0234375, 0.0234375, 0.0234375, 0.0234375, 0.0234375, 0.0234375]","[0, 0, 0, 0, 0, 0, 0, 0, 0, 0, 0]","[0, 0, 0, 0, 0, 0, 0, 0, 0, 0, 0]","[0, 0, 0, 0, 0, 0, 0, 0, 0, 0, 0]","[0.002960100071504712, 0.013571899966336787, 0.03644270007498562, 0.05420909996610135, 0.07035589998122305, 0.08716390002518892, 0.10374859999865294, 0.12030589999631047, 0.1370926999952644, 0.15373170003294945, 0.17090400005690753]",17.10306569992099,None,"[1, 1, 1, 1, 1, 1, 1, 1, 1, 1, 1]",60,17.10306569992099,None,17.10306569992099,None,17.10306569992099,None,17.10306569992099,None,space,0.15242239995859563,17.10306569992099,None,,,,,,,,,,,,,,,,,,,,,,,,,a,001,2020_May_28_1529,mousePos2,2020.1.3,59.97969087564203,
20,0,20,0,,,,,,,,,,,,,"[-0.05859375, -0.05859375, -0.05859375, -0.05859375, -0.05859375, -0.05859375, -0.05859375, -0.05859375, -0.05859375, -0.05859375, -0.05859375]","[0.0234375, 0.0234375, 0.0234375, 0.0234375, 0.0234375, 0.0234375, 0.0234375, 0.0234375, 0.0234375, 0.0234375, 0.0234375]","[0, 0, 0, 0, 0, 0, 0, 0, 0, 0, 0]","[0, 0, 0, 0, 0, 0, 0, 0, 0, 0, 0]","[0, 0, 0, 0, 0, 0, 0, 0, 0, 0, 0]","[0.00299579999409616, 0.014634699909947813, 0.03566809999756515, 0.0532710999250412, 0.06951699999626726, 0.08648479997646064, 0.10284989990759641, 0.11954419990070164, 0.13656369992531836, 0.15286189992912114, 0.16990279988385737]",17.28765959991142,None,"[1, 1, 1, 1, 1, 1, 1, 1, 1, 1, 1]",30,17.28765959991142,None,17.28765959991142,None,17.28765959991142,None,17.28765959991142,None,space,0.15181059995666146,17.28765959991142,None,,,,,,,,,,,,,,,,,,,,,,,,,a,001,2020_May_28_1529,mousePos2,2020.1.3,59.97969087564203,
21,0,21,0,,,,,,,,,,,,,"[-0.05859375, -0.05859375, -0.05859375, -0.05859375, -0.05859375, -0.05859375, -0.05859375, -0.05859375, -0.05859375, -0.05859375, -0.05859375]","[0.0234375, 0.0234375, 0.0234375, 0.0234375, 0.0234375, 0.0234375, 0.0234375, 0.0234375, 0.0234375, 0.0234375, 0.0234375]","[0, 0, 0, 0, 0, 0, 0, 0, 0, 0, 0]","[0, 0, 0, 0, 0, 0, 0, 0, 0, 0, 0]","[0, 0, 0, 0, 0, 0, 0, 0, 0, 0, 0]","[0.0029597000684589148, 0.014038500026799738, 0.0354269000235945, 0.053125300095416605, 0.0693270000629127, 0.08589550002943724, 0.10269730002619326, 0.1193166000302881, 0.13644590007606894, 0.1526878000004217, 0.16931720008142292]",17.471707699936815,None,"[1, 1, 1, 1, 1, 1, 1, 1, 1, 1, 1]",60,17.471707699936815,None,17.471707699936815,None,17.471707699936815,None,17.471707699936815,None,space,0.14379270002245903,17.471707699936815,None,,,,,,,,,,,,,,,,,,,,,,,,,a,001,2020_May_28_1529,mousePos2,2020.1.3,59.97969087564203,
22,0,22,0,,,,,,,,,,,,,"[-0.05859375, -0.05859375, -0.05859375, -0.05859375, -0.05859375, -0.05859375, -0.05859375, -0.05859375, -0.05859375, -0.05859375]","[0.0234375, 0.0234375, 0.0234375, 0.0234375, 0.0234375, 0.0234375, 0.0234375, 0.0234375, 0.0234375, 0.0234375]","[0, 0, 0, 0, 0, 0, 0, 0, 0, 0]","[0, 0, 0, 0, 0, 0, 0, 0, 0, 0]","[0, 0, 0, 0, 0, 0, 0, 0, 0, 0]","[0.0033840000396594405, 0.014369799988344312, 0.03747270000167191, 0.05531119997613132, 0.07152739993762225, 0.08827860001474619, 0.10475389997009188, 0.12160329998005182, 0.13822359999176115, 0.1553828000323847]",17.65271599998232,None,"[1, 1, 1, 1, 1, 1, 1, 1, 1, 1]",30,17.65271599998232,None,17.65271599998232,None,17.65271599998232,None,17.65271599998232,None,space,0.13913160003721714,17.65271599998232,None,,,,,,,,,,,,,,,,,,,,,,,,,a,001,2020_May_28_1529,mousePos2,2020.1.3,59.97969087564203,
23,0,23,0,,,,,,,,,,,,,"[-0.05859375, -0.05859375, -0.05859375, -0.05859375, -0.05859375, -0.05859375, -0.05859375, -0.05859375, -0.05859375, -0.05859375, -0.05859375]","[0.0234375, 0.0234375, 0.0234375, 0.0234375, 0.0234375, 0.0234375, 0.0234375, 0.0234375, 0.0234375, 0.0234375, 0.0234375]","[0, 0, 0, 0, 0, 0, 0, 0, 0, 0, 0]","[0, 0, 0, 0, 0, 0, 0, 0, 0, 0, 0]","[0, 0, 0, 0, 0, 0, 0, 0, 0, 0, 0]","[0.0028999000787734985, 0.013831300078891218, 0.035920900059863925, 0.05321629997342825, 0.06999580003321171, 0.08656299998983741, 0.10336599999573082, 0.11994560004677624, 0.13656540005467832, 0.15325360000133514, 0.17051069997251034]",17.820030299946666,None,"[1, 1, 1, 1, 1, 1, 1, 1, 1, 1, 1]",60,17.820030299946666,None,17.820030299946666,None,17.820030299946666,None,17.820030299946666,None,space,0.1554673999780789,17.820030299946666,None,,,,,,,,,,,,,,,,,,,,,,,,,a,001,2020_May_28_1529,mousePos2,2020.1.3,59.97969087564203,
24,0,24,0,,,,,,,,,,,,,"[-0.05859375, -0.05859375, -0.05859375, -0.05859375, -0.05859375, -0.05859375, -0.05859375, -0.05859375, -0.05859375, -0.05859375, -0.05859375, -0.05859375]","[0.0234375, 0.0234375, 0.0234375, 0.0234375, 0.0234375, 0.0234375, 0.0234375, 0.0234375, 0.0234375, 0.0234375, 0.0234375, 0.0234375]","[0, 0, 0, 0, 0, 0, 0, 0, 0, 0, 0, 0]","[0, 0, 0, 0, 0, 0, 0, 0, 0, 0, 0, 0]","[0, 0, 0, 0, 0, 0, 0, 0, 0, 0, 0, 0]","[0.00289789994712919, 0.013472900027409196, 0.035314799984917045, 0.05251289997249842, 0.06943799997679889, 0.08631889999378473, 0.10250919999089092, 0.11927339993417263, 0.13613759994041175, 0.15259439998771995, 0.16933349997270852, 0.18582070001866668]",18.004027199931443,None,"[1, 1, 1, 1, 1, 1, 1, 1, 1, 1, 1, 1]",30,18.004027199931443,None,18.004027199931443,None,18.004027199931443,None,18.004027199931443,None,space,0.16344609996303916,18.004027199931443,None,,,,,,,,,,,,,,,,,,,,,,,,,a,001,2020_May_28_1529,mousePos2,2020.1.3,59.97969087564203,
25,0,25,0,,,,,,,,,,,,,"[-0.05859375, -0.05859375, -0.05859375, -0.05859375, -0.05859375, -0.05859375, -0.05859375, -0.05859375, -0.05859375, -0.05859375, -0.05859375, -0.05859375]","[0.0234375, 0.0234375, 0.0234375, 0.0234375, 0.0234375, 0.0234375, 0.0234375, 0.0234375, 0.0234375, 0.0234375, 0.0234375, 0.0234375]","[0, 0, 0, 0, 0, 0, 0, 0, 0, 0, 0, 0]","[0, 0, 0, 0, 0, 0, 0, 0, 0, 0, 0, 0]","[0, 0, 0, 0, 0, 0, 0, 0, 0, 0, 0, 0]","[0.003530499991029501, 0.01418639998883009, 0.037342799943871796, 0.05486859998200089, 0.07203389995265752, 0.08838989993091673, 0.10487839998677373, 0.12146019993815571, 0.1381118999561295, 0.15479509998112917, 0.17144289996940643, 0.18853179994039237]",18.2024046999868,None,"[1, 1, 1, 1, 1, 1, 1, 1, 1, 1, 1, 1]",60,18.2024046999868,None,18.2024046999868,None,18.2024046999868,None,18.2024046999868,None,space,0.17304110003169626,18.2024046999868,None,,,,,,,,,,,,,,,,,,,,,,,,,a,001,2020_May_28_1529,mousePos2,2020.1.3,59.97969087564203,
26,0,26,0,,,,,,,,,,,,,"[-0.05859375, -0.05859375, -0.05859375, -0.05859375, -0.05859375, -0.05859375, -0.05859375, -0.05859375, -0.05859375, -0.05859375, -0.05859375]","[0.0234375, 0.0234375, 0.0234375, 0.0234375, 0.0234375, 0.0234375, 0.0234375, 0.0234375, 0.0234375, 0.0234375, 0.0234375]","[0, 0, 0, 0, 0, 0, 0, 0, 0, 0, 0]","[0, 0, 0, 0, 0, 0, 0, 0, 0, 0, 0]","[0, 0, 0, 0, 0, 0, 0, 0, 0, 0, 0]","[0.003361099981702864, 0.013794499915093184, 0.035896899993531406, 0.053157599992118776, 0.06992899999022484, 0.08648930001072586, 0.10322119994089007, 0.11983929993584752, 0.13655699999071658, 0.1531027000164613, 0.17054520000237972]",18.403152499930002,None,"[1, 1, 1, 1, 1, 1, 1, 1, 1, 1, 1]",30,18.403152499930002,None,18.403152499930002,None,18.403152499930002,None,18.403152499930002,None,space,0.15660049999132752,18.403152499930002,None,,,,,,,,,,,,,,,,,,,,,,,,,a,001,2020_May_28_1529,mousePos2,2020.1.3,59.97969087564203,
27,0,27,0,,,,,,,,,,,,,"[-0.05859375, -0.05859375, -0.05859375, -0.05859375, -0.05859375, -0.05859375, -0.05859375, -0.05859375, -0.05859375, -0.05859375, -0.05859375, -0.05859375]","[0.0234375, 0.0234375, 0.0234375, 0.0234375, 0.0234375, 0.0234375, 0.0234375, 0.0234375, 0.0234375, 0.0234375, 0.0234375, 0.0234375]","[0, 0, 0, 0, 0, 0, 0, 0, 0, 0, 0, 0]","[0, 0, 0, 0, 0, 0, 0, 0, 0, 0, 0, 0]","[0, 0, 0, 0, 0, 0, 0, 0, 0, 0, 0, 0]","[0.00299279997125268, 0.013676899950951338, 0.03568009997252375, 0.05302120000123978, 0.06951940001454204, 0.08683319995179772, 0.10291350004263222, 0.11954280000645667, 0.1362476999638602, 0.15276880003511906, 0.16963709995616227, 0.1865700000198558]",18.587193799903616,None,"[1, 1, 1, 1, 1, 1, 1, 1, 1, 1, 1, 1]",60,18.587193799903616,None,18.587193799903616,None,18.587193799903616,None,18.587193799903616,None,space,0.17280409997329116,18.587193799903616,None,,,,,,,,,,,,,,,,,,,,,,,,,a,001,2020_May_28_1529,mousePos2,2020.1.3,59.97969087564203,
28,0,28,0,,,,,,,,,,,,,"[-0.05859375, -0.05859375, -0.05859375, -0.05859375, -0.05859375, -0.05859375, -0.05859375, -0.05859375, -0.05859375, -0.05859375, -0.05859375]","[0.0234375, 0.0234375, 0.0234375, 0.0234375, 0.0234375, 0.0234375, 0.0234375, 0.0234375, 0.0234375, 0.0234375, 0.0234375]","[0, 0, 0, 0, 0, 0, 0, 0, 0, 0, 0]","[0, 0, 0, 0, 0, 0, 0, 0, 0, 0, 0]","[0, 0, 0, 0, 0, 0, 0, 0, 0, 0, 0]","[0.003087199991568923, 0.014234900008887053, 0.03578459995333105, 0.05393950000870973, 0.06970989995170385, 0.08637999999336898, 0.10302479995880276, 0.11970309994649142, 0.1363256999757141, 0.15316330001223832, 0.17013819993007928]",18.786908999900334,None,"[1, 1, 1, 1, 1, 1, 1, 1, 1, 1, 1]",30,18.786908999900334,None,18.786908999900334,None,18.786908999900334,None,18.786908999900334,None,space,0.15684289997443557,18.786908999900334,None,,,,,,,,,,,,,,,,,,,,,,,,,a,001,2020_May_28_1529,mousePos2,2020.1.3,59.97969087564203,
29,0,29,0,,,,,,,,,,,,,"[-0.05859375, -0.05859375, -0.05859375, -0.05859375, -0.05859375, -0.05859375, -0.05859375, -0.05859375, -0.05859375, -0.05859375, -0.05859375, -0.05859375, -0.05859375, -0.05859375]","[0.0234375, 0.0234375, 0.0234375, 0.0234375, 0.0234375, 0.0234375, 0.0234375, 0.0234375, 0.0234375, 0.0234375, 0.0234375, 0.0234375, 0.0234375, 0.0234375]","[0, 0, 0, 0, 0, 0, 0, 0, 0, 0, 0, 0, 0, 0]","[0, 0, 0, 0, 0, 0, 0, 0, 0, 0, 0, 0, 0, 0]","[0, 0, 0, 0, 0, 0, 0, 0, 0, 0, 0, 0, 0, 0]","[0.0031796999974176288, 0.015109000029042363, 0.03534529998432845, 0.052562299999408424, 0.06905729998834431, 0.08578540000598878, 0.10256819997448474, 0.11920309998095036, 0.1358839999884367, 0.15243740007281303, 0.16905560006853193, 0.185898800031282, 0.2024480999680236, 0.21910690004006028]",18.97141090000514,None,"[1, 1, 1, 1, 1, 1, 1, 1, 1, 1, 1, 1, 1, 1]",60,18.97141090000514,None,18.97141090000514,None,18.97141090000514,None,18.97141090000514,None,space,0.19614810007624328,18.97141090000514,None,,,,,,,,,,,,,,,,,,,,,,,,,a,001,2020_May_28_1529,mousePos2,2020.1.3,59.97969087564203,
30,0,30,0,,,,,,,,,,,,,"[-0.05859375, -0.05859375, -0.05859375, -0.05859375, -0.05859375, -0.05859375, -0.05859375, -0.05859375, -0.05859375, -0.05859375]","[0.0234375, 0.0234375, 0.0234375, 0.0234375, 0.0234375, 0.0234375, 0.0234375, 0.0234375, 0.0234375, 0.0234375]","[0, 0, 0, 0, 0, 0, 0, 0, 0, 0]","[0, 0, 0, 0, 0, 0, 0, 0, 0, 0]","[0, 0, 0, 0, 0, 0, 0, 0, 0, 0]","[0.0029626000905409455, 0.014019099995493889, 0.03684030007570982, 0.053500200039707124, 0.07025830005295575, 0.08693150000181049, 0.10358110000379384, 0.12030160007998347, 0.13693600008264184, 0.15401440009009093]",19.20342969999183,None,"[1, 1, 1, 1, 1, 1, 1, 1, 1, 1]",30,19.20342969999183,None,19.20342969999183,None,19.20342969999183,None,19.20342969999183,None,space,0.1406205000821501,19.20342969999183,None,,,,,,,,,,,,,,,,,,,,,,,,,a,001,2020_May_28_1529,mousePos2,2020.1.3,59.97969087564203,
31,0,31,0,,,,,,,,,,,,,"[-0.05859375, -0.05859375, -0.05859375, -0.05859375, -0.05859375, -0.05859375, -0.05859375, -0.05859375, -0.05859375, -0.05859375, -0.05859375]","[0.0234375, 0.0234375, 0.0234375, 0.0234375, 0.0234375, 0.0234375, 0.0234375, 0.0234375, 0.0234375, 0.0234375, 0.0234375]","[0, 0, 0, 0, 0, 0, 0, 0, 0, 0, 0]","[0, 0, 0, 0, 0, 0, 0, 0, 0, 0, 0]","[0, 0, 0, 0, 0, 0, 0, 0, 0, 0, 0]","[0.002881700056605041, 0.012950000003911555, 0.03582109999842942, 0.05314810003619641, 0.07039090001489967, 0.08668329997453839, 0.10307379998266697, 0.11977210000623018, 0.13638030004221946, 0.1530116000212729, 0.17019259999506176]",19.369292599963956,None,"[1, 1, 1, 1, 1, 1, 1, 1, 1, 1, 1]",60,19.369292599963956,None,19.369292599963956,None,19.369292599963956,None,19.369292599963956,None,space,0.15850179991684854,19.369292599963956,None,,,,,,,,,,,,,,,,,,,,,,,,,a,001,2020_May_28_1529,mousePos2,2020.1.3,59.97969087564203,
32,0,32,0,,,,,,,,,,,,,"[-0.05859375, -0.05859375, -0.05859375, -0.05859375, -0.05859375, -0.05859375, -0.05859375, -0.05859375, -0.05859375, -0.05859375, -0.05859375, -0.05859375]","[0.0234375, 0.0234375, 0.0234375, 0.0234375, 0.0234375, 0.0234375, 0.0234375, 0.0234375, 0.0234375, 0.0234375, 0.0234375, 0.0234375]","[0, 0, 0, 0, 0, 0, 0, 0, 0, 0, 0, 0]","[0, 0, 0, 0, 0, 0, 0, 0, 0, 0, 0, 0]","[0, 0, 0, 0, 0, 0, 0, 0, 0, 0, 0, 0]","[0.003153500030748546, 0.01359069999307394, 0.03656579996459186, 0.053999299998395145, 0.07062849996145815, 0.0873155000153929, 0.10405500000342727, 0.12063070002477616, 0.13723819993901998, 0.1539605000289157, 0.17057560000102967, 0.18764100002590567]",19.552432299940847,None,"[1, 1, 1, 1, 1, 1, 1, 1, 1, 1, 1, 1]",30,19.552432299940847,None,19.552432299940847,None,19.552432299940847,None,19.552432299940847,None,space,0.1670199999352917,19.552432299940847,None,,,,,,,,,,,,,,,,,,,,,,,,,a,001,2020_May_28_1529,mousePos2,2020.1.3,59.97969087564203,
33,0,33,0,,,,,,,,,,,,,"[-0.05859375, -0.05859375, -0.05859375, -0.05859375, -0.05859375, -0.05859375, -0.05859375, -0.05859375, -0.05859375, -0.05859375, -0.05859375]","[0.0234375, 0.0234375, 0.0234375, 0.0234375, 0.0234375, 0.0234375, 0.0234375, 0.0234375, 0.0234375, 0.0234375, 0.0234375]","[0, 0, 0, 0, 0, 0, 0, 0, 0, 0, 0]","[0, 0, 0, 0, 0, 0, 0, 0, 0, 0, 0]","[0, 0, 0, 0, 0, 0, 0, 0, 0, 0, 0]","[0.0030335000483319163, 0.013511399971321225, 0.035851199994795024, 0.05332239996641874, 0.06995829998049885, 0.08669240004383028, 0.10324490000493824, 0.11995289998594671, 0.13659560005180538, 0.1531597999855876, 0.170604299986735]",19.75314599997364,None,"[1, 1, 1, 1, 1, 1, 1, 1, 1, 1, 1]",60,19.75314599997364,None,19.75314599997364,None,19.75314599997364,None,19.75314599997364,None,space,0.15832430007867515,19.75314599997364,None,,,,,,,,,,,,,,,,,,,,,,,,,a,001,2020_May_28_1529,mousePos2,2020.1.3,59.97969087564203,
34,0,34,0,,,,,,,,,,,,,"[-0.05859375, -0.05859375, -0.05859375, -0.05859375, -0.05859375, -0.05859375, -0.05859375, -0.05859375, -0.05859375, -0.05859375, -0.05859375, -0.05859375]","[0.0234375, 0.0234375, 0.0234375, 0.0234375, 0.0234375, 0.0234375, 0.0234375, 0.0234375, 0.0234375, 0.0234375, 0.0234375, 0.0234375]","[0, 0, 0, 0, 0, 0, 0, 0, 0, 0, 0, 0]","[0, 0, 0, 0, 0, 0, 0, 0, 0, 0, 0, 0]","[0, 0, 0, 0, 0, 0, 0, 0, 0, 0, 0, 0]","[0.003111699945293367, 0.013331099995411932, 0.032057999982498586, 0.04932430002372712, 0.0664785000262782, 0.08264839998446405, 0.09933130000717938, 0.11601809994317591, 0.1328314000274986, 0.14934440003708005, 0.16606509999837726, 0.18264889996498823]",19.940236900001764,None,"[1, 1, 1, 1, 1, 1, 1, 1, 1, 1, 1, 1]",30,19.940236900001764,None,19.940236900001764,None,19.940236900001764,None,19.940236900001764,None,space,0.17120169999543577,19.940236900001764,None,,,,,,,,,,,,,,,,,,,,,,,,,a,001,2020_May_28_1529,mousePos2,2020.1.3,59.97969087564203,
35,0,35,0,,,,,,,,,,,,,"[-0.05859375, -0.05859375, -0.05859375, -0.05859375, -0.05859375, -0.05859375, -0.05859375, -0.05859375, -0.05859375, -0.05859375, -0.05859375, -0.05859375]","[0.0234375, 0.0234375, 0.0234375, 0.0234375, 0.0234375, 0.0234375, 0.0234375, 0.0234375, 0.0234375, 0.0234375, 0.0234375, 0.0234375]","[0, 0, 0, 0, 0, 0, 0, 0, 0, 0, 0, 0]","[0, 0, 0, 0, 0, 0, 0, 0, 0, 0, 0, 0]","[0, 0, 0, 0, 0, 0, 0, 0, 0, 0, 0, 0]","[0.0037505999207496643, 0.015302299987524748, 0.036824499955400825, 0.054680799948982894, 0.07064029993489385, 0.08733629994094372, 0.10396259999834001, 0.12071019993163645, 0.1373064999934286, 0.1540838999208063, 0.17069729999639094, 0.1881998999742791]",20.136689799954183,None,"[1, 1, 1, 1, 1, 1, 1, 1, 1, 1, 1, 1]",60,20.136689799954183,None,20.136689799954183,None,20.136689799954183,None,20.136689799954183,None,space,0.1747519999044016,20.136689799954183,None,,,,,,,,,,,,,,,,,,,,,,,,,a,001,2020_May_28_1529,mousePos2,2020.1.3,59.97969087564203,
36,0,36,0,,,,,,,,,,,,,"[-0.05859375, -0.05859375, -0.05859375, -0.05859375, -0.05859375, -0.05859375, -0.05859375, -0.05859375, -0.05859375, -0.05859375, -0.05859375]","[0.0234375, 0.0234375, 0.0234375, 0.0234375, 0.0234375, 0.0234375, 0.0234375, 0.0234375, 0.0234375, 0.0234375, 0.0234375]","[0, 0, 0, 0, 0, 0, 0, 0, 0, 0, 0]","[0, 0, 0, 0, 0, 0, 0, 0, 0, 0, 0]","[0, 0, 0, 0, 0, 0, 0, 0, 0, 0, 0]","[0.002968000015243888, 0.013278199941851199, 0.035559299984015524, 0.05344749998766929, 0.06950240000151098, 0.08622739999555051, 0.10283610003534704, 0.11946489999536425, 0.13624939997680485, 0.15284130000509322, 0.16968539997469634]",20.33612929994706,None,"[1, 1, 1, 1, 1, 1, 1, 1, 1, 1, 1]",30,20.33612929994706,None,20.33612929994706,None,20.33612929994706,None,20.33612929994706,None,space,0.15927709999959916,20.33612929994706,None,,,,,,,,,,,,,,,,,,,,,,,,,a,001,2020_May_28_1529,mousePos2,2020.1.3,59.97969087564203,
37,0,37,0,,,,,,,,,,,,,"[-0.05859375, -0.05859375, -0.05859375, -0.05859375, -0.05859375, -0.05859375, -0.05859375, -0.05859375, -0.05859375, -0.05859375, -0.05859375, -0.05859375, -0.05859375]","[0.0234375, 0.0234375, 0.0234375, 0.0234375, 0.0234375, 0.0234375, 0.0234375, 0.0234375, 0.0234375, 0.0234375, 0.0234375, 0.0234375, 0.0234375]","[0, 0, 0, 0, 0, 0, 0, 0, 0, 0, 0, 0, 0]","[0, 0, 0, 0, 0, 0, 0, 0, 0, 0, 0, 0, 0]","[0, 0, 0, 0, 0, 0, 0, 0, 0, 0, 0, 0, 0]","[0.0033186000073328614, 0.013887000037357211, 0.035560799995437264, 0.05297400010749698, 0.06957170006353408, 0.08676370000466704, 0.10291250003501773, 0.11950650007929653, 0.13628050009720027, 0.15294110006652772, 0.16946680005639791, 0.18615240009967238, 0.2033540999982506]",20.51963779993821,None,"[1, 1, 1, 1, 1, 1, 1, 1, 1, 1, 1, 1, 1]",60,20.51963779993821,None,20.51963779993821,None,20.51963779993821,None,20.51963779993821,None,space,0.18389009998645633,20.51963779993821,None,,,,,,,,,,,,,,,,,,,,,,,,,a,001,2020_May_28_1529,mousePos2,2020.1.3,59.97969087564203,
38,0,38,0,,,,,,,,,,,,,"[-0.05859375, -0.05859375, -0.05859375, -0.05859375, -0.05859375, -0.05859375, -0.05859375, -0.05859375, -0.05859375, -0.05859375, -0.05859375, -0.05859375]","[0.0234375, 0.0234375, 0.0234375, 0.0234375, 0.0234375, 0.0234375, 0.0234375, 0.0234375, 0.0234375, 0.0234375, 0.0234375, 0.0234375]","[0, 0, 0, 0, 0, 0, 0, 0, 0, 0, 0, 0]","[0, 0, 0, 0, 0, 0, 0, 0, 0, 0, 0, 0]","[0, 0, 0, 0, 0, 0, 0, 0, 0, 0, 0, 0]","[0.002889600000344217, 0.013745800009928644, 0.03618370008189231, 0.05432260001543909, 0.07015160005539656, 0.0869611999951303, 0.1035633001010865, 0.12028030003421009, 0.1369965000776574, 0.15364190004765987, 0.17021550005301833, 0.1874221001053229]",20.736028999905102,None,"[1, 1, 1, 1, 1, 1, 1, 1, 1, 1, 1, 1]",30,20.736028999905102,None,20.736028999905102,None,20.736028999905102,None,20.736028999905102,None,space,0.1674821999622509,20.736028999905102,None,,,,,,,,,,,,,,,,,,,,,,,,,a,001,2020_May_28_1529,mousePos2,2020.1.3,59.97969087564203,
39,0,39,0,,,,,,,,,,,,,"[-0.05859375, -0.05859375, -0.05859375, -0.05859375, -0.05859375, -0.05859375, -0.05859375, -0.05859375, -0.05859375, -0.05859375, -0.05859375]","[0.0234375, 0.0234375, 0.0234375, 0.0234375, 0.0234375, 0.0234375, 0.0234375, 0.0234375, 0.0234375, 0.0234375, 0.0234375]","[0, 0, 0, 0, 0, 0, 0, 0, 0, 0, 0]","[0, 0, 0, 0, 0, 0, 0, 0, 0, 0, 0]","[0, 0, 0, 0, 0, 0, 0, 0, 0, 0, 0]","[0.0029870999278500676, 0.013970899977721274, 0.0364353999029845, 0.05429609993007034, 0.07047729997429997, 0.08722029998898506, 0.10383049992378801, 0.12037959997542202, 0.13699239993002266, 0.1538052000105381, 0.17032149992883205]",20.936275299987756,None,"[1, 1, 1, 1, 1, 1, 1, 1, 1, 1, 1]",60,20.936275299987756,None,20.936275299987756,None,20.936275299987756,None,20.936275299987756,None,space,0.15922589995898306,20.936275299987756,None,,,,,,,,,,,,,,,,,,,,,,,,,a,001,2020_May_28_1529,mousePos2,2020.1.3,59.97969087564203,
40,0,40,0,,,,,,,,,,,,,"[-0.05859375, -0.05859375, -0.05859375, -0.05859375, -0.05859375, -0.05859375, -0.05859375, -0.05859375, -0.05859375, -0.05859375, -0.05859375, -0.05859375]","[0.0234375, 0.0234375, 0.0234375, 0.0234375, 0.0234375, 0.0234375, 0.0234375, 0.0234375, 0.0234375, 0.0234375, 0.0234375, 0.0234375]","[0, 0, 0, 0, 0, 0, 0, 0, 0, 0, 0, 0]","[0, 0, 0, 0, 0, 0, 0, 0, 0, 0, 0, 0]","[0, 0, 0, 0, 0, 0, 0, 0, 0, 0, 0, 0]","[0.00343150005210191, 0.013752599945291877, 0.03674280003178865, 0.054329699953086674, 0.07100420002825558, 0.08804329996928573, 0.10421180003322661, 0.12080729997251183, 0.13750379998236895, 0.15417430002707988, 0.17077960004098713, 0.18765790003817528]",21.118676799931563,None,"[1, 1, 1, 1, 1, 1, 1, 1, 1, 1, 1, 1]",30,21.118676799931563,None,21.118676799931563,None,21.118676799931563,None,21.118676799931563,None,space,0.1767755999462679,21.118676799931563,None,,,,,,,,,,,,,,,,,,,,,,,,,a,001,2020_May_28_1529,mousePos2,2020.1.3,59.97969087564203,
41,0,41,0,,,,,,,,,,,,,"[-0.05859375, -0.05859375, -0.05859375, -0.05859375, -0.05859375, -0.05859375, -0.05859375, -0.05859375, -0.05859375, -0.05859375, -0.05859375, -0.05859375]","[0.0234375, 0.0234375, 0.0234375, 0.0234375, 0.0234375, 0.0234375, 0.0234375, 0.0234375, 0.0234375, 0.0234375, 0.0234375, 0.0234375]","[0, 0, 0, 0, 0, 0, 0, 0, 0, 0, 0, 0]","[0, 0, 0, 0, 0, 0, 0, 0, 0, 0, 0, 0]","[0, 0, 0, 0, 0, 0, 0, 0, 0, 0, 0, 0]","[0.003347399993799627, 0.014308899990282953, 0.036682500038295984, 0.05383600003551692, 0.07077019999269396, 0.08712470007594675, 0.10374699998646975, 0.12023210001643747, 0.13708650006446987, 0.15367380005773157, 0.1704230000032112, 0.1872884000185877]",21.31946169992443,None,"[1, 1, 1, 1, 1, 1, 1, 1, 1, 1, 1, 1]",60,21.31946169992443,None,21.31946169992443,None,21.31946169992443,None,21.31946169992443,None,space,0.17605689994525164,21.31946169992443,None,,,,,,,,,,,,,,,,,,,,,,,,,a,001,2020_May_28_1529,mousePos2,2020.1.3,59.97969087564203,
42,0,42,0,,,,,,,,,,,,,"[-0.05859375, -0.05859375, -0.05859375, -0.05859375, -0.05859375, -0.05859375, -0.05859375, -0.05859375, -0.05859375, -0.05859375, -0.05859375, -0.05859375, -0.05859375]","[0.0234375, 0.0234375, 0.0234375, 0.0234375, 0.0234375, 0.0234375, 0.0234375, 0.0234375, 0.0234375, 0.0234375, 0.0234375, 0.0234375, 0.0234375]","[0, 0, 0, 0, 0, 0, 0, 0, 0, 0, 0, 0, 0]","[0, 0, 0, 0, 0, 0, 0, 0, 0, 0, 0, 0, 0]","[0, 0, 0, 0, 0, 0, 0, 0, 0, 0, 0, 0, 0]","[0.0035670000361278653, 0.01405889994930476, 0.03477889997884631, 0.05262700002640486, 0.06864419998601079, 0.08537949994206429, 0.10204419994261116, 0.11856029997579753, 0.1352900000056252, 0.15208109992090613, 0.16873129992745817, 0.18532649998087436, 0.20240750000812113]",21.52100949990563,None,"[1, 1, 1, 1, 1, 1, 1, 1, 1, 1, 1, 1, 1]",30,21.52100949990563,None,21.52100949990563,None,21.52100949990563,None,21.52100949990563,None,space,0.18250140000600368,21.52100949990563,None,,,,,,,,,,,,,,,,,,,,,,,,,a,001,2020_May_28_1529,mousePos2,2020.1.3,59.97969087564203,
43,0,43,0,,,,,,,,,,,,,"[-0.05859375, -0.05859375, -0.05859375, -0.05859375, -0.05859375, -0.05859375, -0.05859375, -0.05859375, -0.05859375, -0.05859375]","[0.0234375, 0.0234375, 0.0234375, 0.0234375, 0.0234375, 0.0234375, 0.0234375, 0.0234375, 0.0234375, 0.0234375]","[0, 0, 0, 0, 0, 0, 0, 0, 0, 0]","[0, 0, 0, 0, 0, 0, 0, 0, 0, 0]","[0, 0, 0, 0, 0, 0, 0, 0, 0, 0]","[0.002931899973191321, 0.01348969992250204, 0.036139799980446696, 0.053166299941949546, 0.0698447999311611, 0.08647749992087483, 0.10305319994222373, 0.1197731998981908, 0.13648609991651028, 0.15352069993969053]",21.73545609996654,None,"[1, 1, 1, 1, 1, 1, 1, 1, 1, 1]",60,21.73545609996654,None,21.73545609996654,None,21.73545609996654,None,21.73545609996654,None,space,0.13605649990495294,21.73545609996654,None,,,,,,,,,,,,,,,,,,,,,,,,,a,001,2020_May_28_1529,mousePos2,2020.1.3,59.97969087564203,
44,0,44,0,,,,,,,,,,,,,"[-0.05859375, -0.05859375, -0.05859375, -0.05859375, -0.05859375, -0.05859375, -0.05859375, -0.05859375, -0.05859375, -0.05859375, -0.05859375, -0.05859375, -0.05859375]","[0.0234375, 0.0234375, 0.0234375, 0.0234375, 0.0234375, 0.0234375, 0.0234375, 0.0234375, 0.0234375, 0.0234375, 0.0234375, 0.0234375, 0.0234375]","[0, 0, 0, 0, 0, 0, 0, 0, 0, 0, 0, 0, 0]","[0, 0, 0, 0, 0, 0, 0, 0, 0, 0, 0, 0, 0]","[0, 0, 0, 0, 0, 0, 0, 0, 0, 0, 0, 0, 0]","[0.0029109999304637313, 0.014594399952329695, 0.034902799990959466, 0.05232619994785637, 0.06940039992332458, 0.0855203999672085, 0.10326389991678298, 0.11904239992145449, 0.13559239997994155, 0.1523255999200046, 0.16888439992908388, 0.18556069990154356, 0.20217929990030825]",21.90378359996248,None,"[1, 1, 1, 1, 1, 1, 1, 1, 1, 1, 1, 1, 1]",30,21.90378359996248,None,21.90378359996248,None,21.90378359996248,None,21.90378359996248,None,space,0.1917433999478817,21.90378359996248,None,,,,,,,,,,,,,,,,,,,,,,,,,a,001,2020_May_28_1529,mousePos2,2020.1.3,59.97969087564203,
,,,,,,,,,,,,,,,,,,,,,,,,,,,,,,,,,,,,,,22.115258699981496,None,space,0.17226859997026622,22.115258699981496,None,,,,,,,,,,,,,,,,,,,a,001,2020_May_28_1529,mousePos2,2020.1.3,59.97969087564203,
,,,,0,0,0,0,,,,,,,,,,,,,,,,,"[1, 1, 1, 1, 1, 1, 1, 1, 1, 1, 1, 1, 1, 1, 1, 1, 1, 1, 1, 1, 1, 1, 1, 1, 1, 1, 1, 1, 1, 1, 1, 1, 1, 1, 1, 1, 1, 1, 1, 1, 1, 1, 1, 1, 1, 1, 1, 1, 1, 1, 1, 1, 1, 1, 1, 1, 1, 1, 1, 1, 1, 1, 1, 1, 1, 1, 1, 1, 1, 1, 1, 1, 1, 1, 1, 1, 1, 1, 1, 1, 1, 1, 1, 1, 1, 1, 1, 1, 1, 1, 1, 1, 1, 1, 1, 1, 1, 1, 1, 1, 1, 1, 1, 1, 1, 1, 1, 1, 1, 1, 1, 1, 1, 1, 1, 1, 1, 1, 1, 1, 1, 1, 1, 1, 1, 1, 1, 1, 1, 1, 1, 1, 1, 1, 1, 1, 1, 1, 1, 1, 1, 1, 1, 1, 1, 1, 1, 1, 1, 1, 1, 1, 1, 1, 1, 1, 1, 1, 1, 1, 1, 1, 1, 1, 1, 1, 1, 1, 1, 1, 1, 1, 1, 1, 1, 1, 1, 1, 1, 1, 1, 1, 1, 1, 1, 1, 1, 1, 1, 1, 1, 1, 1, 1, 1, 1, 1, 1, 1, 1, 1, 1, 1, 1, 1, 1, 1, 1, 1, 1, 1, 1, 1, 1, 1, 1, 1, 1, 1, 1, 1, 1, 1, 1, 1, 1, 1, 1, 1, 1, 1, 1, 1, 1, 1, 1, 1, 1, 1, 1, 1, 1, 1, 1, 1, 1, 1, 1, 1, 1, 1, 1, 1, 1, 1, 1, 1, 1, 1, 1, 2, 2, 2, 2, 2, 2, 2, 2, 2, 2, 2, 2, 2, 2, 2, 2, 2, 2, 2, 2, 2, 2, 2, 2, 2, 2, 2, 2, 2, 2, 2, 2, 2, 2, 2, 2, 2, 2, 2, 2, 2, 2, 2, 2, 2, 2, 2, 2, 2, 2, 2, 2, 2, 2, 2, 2, 2, 2, 2, 2, 2, 2, 2, 2, 2, 2, 2, 2, 2, 2, 2, 2, 2, 2, 2, 2, 2, 2, 2, 2, 2, 2, 2, 2, 2, 2, 2, 2, 2, 2, 2, 2, 2, 2, 2, 2, 2, 2, 2, 2, 2, 2, 2, 2, 2, 2, 2, 2, 2, 2, 2, 2, 2, 2, 2, 2, 2, 2, 2, 2, 2, 2, 2, 2, 2, 2, 2, 2, 2, 2, 2, 2, 2, 2, 2, 2, 2, 2, 2, 2, 2, 2, 2, 2, 2, 2, 2, 2, 2, 2, 2, 2, 2, 2, 2, 2, 2, 2, 2, 2, 2, 2, 2, 2, 2, 2, 2, 2, 2, 2, 2, 2, 2, 2, 2, 2, 2, 2, 2, 2, 2, 2, 2, 2, 2, 2, 2, 2, 2, 2, 2, 2, 2, 2, 2, 2, 2, 2, 2, 2, 2, 2, 2, 2, 2, 2, 2, 2, 2, 2, 2, 2, 2, 2, 2, 2, 2, 2, 2, 2, 2, 2, 2, 2, 2, 2, 2, 2, 2, 2, 2, 2, 2, 2, 2, 2, 2, 2, 2, 2, 2, 2, 2, 2, 2, 2, 2, 2, 2, 2, 2, 2, 2, 2, 2, 2, 2, 2, 2, 2, 2, 2, 2, 2, 2, 2, 2, 2, 2, 2, 2, 2, 2, 2, 2, 2, 2, 2, 2, 2, 2, 2, 2, 2, 2, 2, 2, 2, 2, 2, 2, 2, 2, 2, 2, 2, 2, 2, 2, 2, 2, 2, 2, 2, 2, 2, 2, 2, 2, 2, 2, 2, 2, 2, 2, 2, 2, 2, 2, 2, 2, 2, 2, 2, 2, 2, 2, 2, 2, 2, 2, 2, 2, 2, 2, 2, 2, 2, 2, 2, 2, 2, 2, 2, 2, 2, 2, 2, 2, 2, 2, 2, 2, 2, 2, 2, 2, 2, 2, 2, 2, 2, 2, 2, 2, 2, 2, 2, 2, 2, 2, 2, 2, 2, 2, 2, 2, 2, 2, 2, 2, 2, 2, 2, 2, 2, 2, 2, 2, 2, 3, 3, 3, 3, 3, 3, 3, 3, 3, 3, 3, 3, 3, 3, 3, 3, 3, 3, 3, 3, 3, 3, 3, 3, 3, 3, 3, 3, 3, 3, 3, 3, 3, 3, 3, 3, 3, 3, 3, 3, 3, 3, 3, 3, 3, 3, 3, 3, 3, 3, 3, 3, 3, 3, 3, 3, 3, 3, 3, 3, 3, 3, 3, 3, 3, 3, 3, 3, 3, 3, 3, 3, 3, 3, 3, 3, 3, 3, 3, 3, 3, 3, 3, 3, 3, 3, 3, 3, 3, 3, 3, 3, 3, 3, 3, 3, 3, 3, 3, 3, 3, 3, 3, 3, 3, 3, 3, 3, 3, 3, 3, 3, 3, 3, 3, 3, 3, 3, 3, 3, 3, 3, 3, 3, 3, 3, 3, 3, 3, 3, 3, 3, 3, 3, 3, 3, 3, 3, 3, 3, 3, 3, 3, 3, 3, 3, 3, 3, 3, 3, 3, 3, 3, 3, 3, 3, 3, 3, 3, 3, 3, 3, 3, 3, 3, 3, 3, 3, 3, 3, 3, 3, 3, 3, 3, 3, 3, 3, 3, 3, 3, 3, 3, 3, 3, 3, 3, 3, 3, 3, 3, 3, 3, 3, 3, 3, 3, 3, 3, 3, 3, 3, 3, 3, 3, 3, 3, 3, 3, 3]",30,,,,,,,,,,,,,,,,,,,22.310329800006002,None,"[-0.05859375, -0.05859375, -0.05859375, -0.05859375, -0.05859375, -0.05859375, -0.05859375, -0.05859375, -0.05859375, -0.05859375, -0.05859375, -0.05859375, -0.05859375, -0.05859375, -0.05859375, -0.05859375, -0.05859375, -0.05859375, -0.05859375, -0.05859375, -0.05859375, -0.05859375, -0.05859375, -0.05859375, -0.05859375, -0.05859375, -0.05859375, -0.05859375, -0.05859375, -0.059895833333333336, -0.059895833333333336, -0.059895833333333336, -0.059895833333333336, -0.059895833333333336, -0.059895833333333336, -0.059895833333333336, -0.059895833333333336, -0.059895833333333336, -0.059895833333333336, -0.05859375, -0.057291666666666664, -0.049479166666666664, -0.049479166666666664, -0.049479166666666664, -0.049479166666666664, -0.048177083333333336, -0.048177083333333336, -0.048177083333333336, -0.048177083333333336, -0.05078125, -0.057291666666666664, -0.06380208333333333, -0.06770833333333333, -0.0703125, -0.07421875, -0.08333333333333333, -0.08723958333333333, -0.09114583333333333, -0.09244791666666667, -0.09635416666666667, -0.09895833333333333, -0.10286458333333333, -0.10416666666666667, -0.10546875, -0.10546875, -0.10546875, -0.10546875, -0.10546875, -0.10546875, -0.10546875, -0.10546875, -0.10546875, -0.10546875, -0.10546875, -0.10546875, -0.10546875, -0.10677083333333333, -0.11067708333333333, -0.11197916666666667, -0.11328125, -0.11458333333333333, -0.11458333333333333, -0.11458333333333333, -0.11197916666666667, -0.10677083333333333, -0.1015625, -0.09244791666666667, -0.08072916666666667, -0.07552083333333333, -0.07161458333333333, -0.06640625, -0.06380208333333333, -0.059895833333333336, -0.057291666666666664, -0.053385416666666664, -0.05078125, -0.048177083333333336, -0.046875, -0.045572916666666664, -0.044270833333333336, -0.041666666666666664, -0.040364583333333336, -0.040364583333333336, -0.040364583333333336, -0.040364583333333336, -0.040364583333333336, -0.040364583333333336, -0.040364583333333336, -0.0390625, -0.037760416666666664, -0.033854166666666664, -0.03125, -0.026041666666666668, -0.022135416666666668, -0.020833333333333332, -0.01953125, -0.016927083333333332, -0.013020833333333334, -0.009114583333333334, -0.0078125, -0.006510416666666667, -0.005208333333333333, -0.005208333333333333, -0.00390625, -0.0013020833333333333, -0.0013020833333333333, -0.0013020833333333333, -0.0013020833333333333, -0.0013020833333333333, -0.0013020833333333333, -0.0013020833333333333, -0.0013020833333333333, -0.0013020833333333333, -0.0013020833333333333, -0.0013020833333333333, -0.0013020833333333333, -0.0013020833333333333, -0.0013020833333333333, -0.0013020833333333333, -0.0013020833333333333, -0.0013020833333333333, -0.0013020833333333333, -0.0026041666666666665, -0.0026041666666666665, -0.005208333333333333, -0.006510416666666667, -0.0078125, -0.0078125, -0.0078125, -0.0078125, -0.0078125, -0.0078125, -0.0078125, -0.0078125, -0.010416666666666666, -0.016927083333333332, -0.0234375, -0.03125, -0.033854166666666664, -0.036458333333333336, -0.0390625, -0.0390625, -0.0390625, -0.0390625, -0.0390625, -0.040364583333333336, -0.040364583333333336, -0.040364583333333336, -0.040364583333333336, -0.040364583333333336, -0.040364583333333336, -0.040364583333333336, -0.040364583333333336, -0.040364583333333336, -0.040364583333333336, -0.040364583333333336, -0.040364583333333336, -0.040364583333333336, -0.040364583333333336, -0.040364583333333336, -0.040364583333333336, -0.041666666666666664, -0.041666666666666664, -0.041666666666666664, -0.041666666666666664, -0.041666666666666664, -0.04296875, -0.04296875, -0.044270833333333336, -0.044270833333333336, -0.045572916666666664, -0.045572916666666664, -0.046875, -0.046875, -0.046875, -0.046875, -0.046875, -0.046875, -0.046875, -0.046875, -0.046875, -0.046875, -0.046875, -0.041666666666666664, -0.0390625, -0.032552083333333336, -0.0234375, -0.018229166666666668, -0.015625, -0.01171875, -0.010416666666666666, -0.0078125, -0.00390625, 0.0, 0.00390625, 0.006510416666666667, 0.0078125, 0.009114583333333334, 0.010416666666666666, 0.010416666666666666, 0.010416666666666666, 0.010416666666666666, 0.010416666666666666, 0.010416666666666666, 0.010416666666666666, 0.01171875, 0.013020833333333334, 0.014322916666666666, 0.015625, 0.015625, 0.015625, 0.015625, 0.015625, 0.015625, 0.015625, 0.015625, 0.015625, 0.015625, 0.015625, 0.015625, 0.015625, 0.015625, 0.016927083333333332, 0.016927083333333332, 0.018229166666666668, 0.018229166666666668, 0.018229166666666668, 0.018229166666666668, 0.018229166666666668, 0.018229166666666668, 0.015625, 0.014322916666666666, 0.013020833333333334, 0.013020833333333334, 0.010416666666666666, 0.006510416666666667, 0.00390625, 0.00390625, 0.00390625, 0.0026041666666666665, 0.0, 0.0, 0.0, -0.0026041666666666665, -0.00390625, -0.005208333333333333, -0.005208333333333333, -0.0078125, -0.009114583333333334, -0.010416666666666666, -0.01171875, -0.01171875, -0.01171875, -0.01171875, -0.01171875, -0.01171875, -0.01171875, -0.01171875, -0.01171875, -0.01171875, -0.01171875, -0.01171875, -0.01171875, -0.01171875, -0.01171875, -0.01171875, -0.01953125, -0.024739583333333332, -0.03125, -0.036458333333333336, -0.044270833333333336, -0.053385416666666664, -0.0625, -0.06380208333333333, -0.06380208333333333, -0.06380208333333333, -0.06380208333333333, -0.06380208333333333, -0.06380208333333333, -0.06380208333333333, -0.06380208333333333, -0.061197916666666664, -0.0546875, -0.0546875, -0.053385416666666664, -0.053385416666666664, -0.053385416666666664, -0.053385416666666664, -0.053385416666666664, -0.052083333333333336, -0.05078125, -0.048177083333333336, -0.046875, -0.044270833333333336, -0.04296875, -0.041666666666666664, -0.040364583333333336, -0.037760416666666664, -0.032552083333333336, -0.026041666666666668, -0.018229166666666668, -0.01171875, -0.005208333333333333, 0.0026041666666666665, 0.01171875, 0.015625, 0.016927083333333332, 0.016927083333333332, 0.016927083333333332, 0.016927083333333332, 0.020833333333333332, 0.024739583333333332, 0.028645833333333332, 0.03125, 0.03515625, 0.041666666666666664, 0.052083333333333336, 0.057291666666666664, 0.0625, 0.06510416666666667, 0.06640625, 0.06901041666666667, 0.0703125, 0.07291666666666667, 0.07552083333333333, 0.07942708333333333, 0.08203125, 0.08463541666666667, 0.08723958333333333, 0.08854166666666667, 0.08984375, 0.08984375, 0.08984375, 0.08984375, 0.08984375, 0.08723958333333333, 0.08463541666666667, 0.07942708333333333, 0.07161458333333333, 0.057291666666666664, 0.032552083333333336, 0.020833333333333332, 0.0078125, -0.0013020833333333333, -0.006510416666666667, -0.0078125, -0.0078125, -0.0078125, -0.0078125, -0.009114583333333334, -0.013020833333333334, -0.01953125, -0.03125, -0.05078125, -0.06770833333333333, -0.08463541666666667, -0.10286458333333333, -0.11848958333333333, -0.13151041666666666, -0.14192708333333334, -0.14713541666666666, -0.15364583333333334, -0.16015625, -0.17317708333333334, -0.1875, -0.20182291666666666, -0.21875, -0.23307291666666666, -0.2421875, -0.25, -0.2513020833333333, -0.2526041666666667, -0.2526041666666667, -0.2526041666666667, -0.2526041666666667, -0.2513020833333333, -0.24609375, -0.23958333333333334, -0.23828125, -0.23828125, -0.23828125, -0.23828125, -0.23958333333333334, -0.24479166666666666, -0.24869791666666666, -0.2591145833333333, -0.2682291666666667, -0.2825520833333333, -0.3033854166666667, -0.3203125, -0.328125, -0.3411458333333333, -0.3450520833333333, -0.3463541666666667, -0.3463541666666667, -0.3463541666666667, -0.3463541666666667, -0.34765625, -0.3489583333333333, -0.3489583333333333, -0.3489583333333333, -0.3489583333333333, -0.34765625, -0.34765625, -0.3411458333333333, -0.3359375, -0.3307291666666667, -0.3268229166666667, -0.3255208333333333, -0.3255208333333333, -0.3255208333333333, -0.3255208333333333, -0.3255208333333333, -0.3255208333333333, -0.3229166666666667, -0.3151041666666667, -0.3111979166666667, -0.3046875, -0.2994791666666667, -0.29296875, -0.2877604166666667, -0.28125, -0.2786458333333333, -0.2747395833333333, -0.26953125, -0.2643229166666667, -0.2591145833333333, -0.2526041666666667, -0.25, -0.24739583333333334, -0.24609375, -0.24348958333333334, -0.2421875, -0.2421875, -0.2421875, -0.2421875, -0.24088541666666666, -0.23828125, -0.23567708333333334, -0.23307291666666666, -0.2265625, -0.22526041666666666, -0.22526041666666666, -0.23177083333333334, -0.25390625, -0.2825520833333333, -0.3333333333333333, -0.3723958333333333, -0.4049479166666667, -0.4348958333333333, -0.4622395833333333, -0.4895833333333333, -0.5208333333333334, -0.5377604166666666, -0.546875, -0.5533854166666666, -0.5559895833333334, -0.5559895833333334, -0.5559895833333334, -0.5533854166666666, -0.55078125, -0.5481770833333334, -0.5455729166666666, -0.5416666666666666, -0.5390625, -0.53125, -0.52734375, -0.52734375, -0.52734375, -0.5260416666666666, -0.5234375, -0.51953125, -0.515625, -0.51171875, -0.5091145833333334, -0.5065104166666666, -0.5052083333333334, -0.50390625, -0.5013020833333334, -0.5, -0.49609375, -0.49609375, -0.4973958333333333, -0.50390625, -0.5234375, -0.5403645833333334, -0.5611979166666666, -0.57421875, -0.578125, -0.5794270833333334, -0.5794270833333334, -0.5794270833333334, -0.58203125, -0.5846354166666666, -0.5872395833333334, -0.5885416666666666, -0.5924479166666666, -0.5950520833333334, -0.59765625, -0.6015625, -0.6041666666666666, -0.6041666666666666, -0.6041666666666666, -0.60546875, -0.6067708333333334, -0.6106770833333334, -0.6145833333333334, -0.6171875, -0.6197916666666666, -0.6197916666666666, -0.62109375, -0.62109375, -0.62109375, -0.62109375, -0.6184895833333334, -0.6145833333333334, -0.61328125, -0.61328125, -0.61328125, -0.61328125, -0.61328125, -0.61328125, -0.61328125, -0.6158854166666666, -0.6263020833333334, -0.63671875, -0.6471354166666666, -0.6575520833333334, -0.66796875, -0.6692708333333334, -0.6731770833333334, -0.6796875, -0.6861979166666666, -0.6901041666666666, -0.6901041666666666, -0.68359375, -0.6744791666666666, -0.6640625, -0.6432291666666666, -0.6158854166666666, -0.5716145833333334, -0.5481770833333334, -0.5234375, -0.5026041666666666, -0.4791666666666667, -0.4544270833333333, -0.44140625, -0.43359375, -0.4283854166666667, -0.4231770833333333, -0.4205729166666667, -0.4153645833333333, -0.40625, -0.3932291666666667, -0.3776041666666667, -0.3619791666666667, -0.34375, -0.328125, -0.3125, -0.3072916666666667, -0.3033854166666667, -0.3033854166666667, -0.3020833333333333, -0.2994791666666667, -0.2890625, -0.28125, -0.2682291666666667, -0.2565104166666667, -0.2421875, -0.22916666666666666, -0.20703125, -0.20052083333333334, -0.19791666666666666, -0.19661458333333334, -0.1953125, -0.1953125, -0.1953125, -0.1953125, -0.1953125, -0.19661458333333334, -0.19791666666666666, -0.19791666666666666, -0.19791666666666666, -0.19791666666666666, -0.19791666666666666, -0.19791666666666666, -0.19791666666666666, -0.19791666666666666, -0.19661458333333334, -0.19661458333333334, -0.19661458333333334, -0.19661458333333334, -0.19661458333333334, -0.1953125, -0.1953125, -0.20572916666666666, -0.2265625, -0.24348958333333334, -0.2578125, -0.2721354166666667, -0.2877604166666667, -0.296875, -0.3033854166666667, -0.3033854166666667, -0.3046875, -0.3059895833333333, -0.3072916666666667, -0.3072916666666667, -0.3072916666666667, -0.3072916666666667, -0.3072916666666667, -0.3072916666666667, -0.30859375, -0.3111979166666667, -0.3138020833333333, -0.3177083333333333, -0.3203125, -0.32421875, -0.328125, -0.3346354166666667, -0.3463541666666667, -0.3502604166666667, -0.3541666666666667, -0.35546875, -0.35546875, -0.35546875, -0.3580729166666667, -0.3580729166666667, -0.3606770833333333, -0.3619791666666667, -0.3645833333333333, -0.3671875, -0.3684895833333333, -0.3697916666666667, -0.3723958333333333, -0.3736979166666667, -0.3736979166666667, -0.3736979166666667, -0.3736979166666667, -0.3736979166666667, -0.3763020833333333, -0.3776041666666667, -0.3776041666666667, -0.37890625, -0.37890625, -0.3815104166666667, -0.3828125, -0.3854166666666667, -0.3854166666666667, -0.3854166666666667, -0.3854166666666667, -0.3854166666666667, -0.3854166666666667, -0.3854166666666667, -0.3854166666666667, -0.38671875, -0.38671875, -0.3880208333333333, -0.3880208333333333, -0.390625, -0.3919270833333333, -0.39453125, -0.3971354166666667, -0.4010416666666667, -0.4075520833333333, -0.41015625, -0.4140625, -0.4166666666666667, -0.4166666666666667, -0.4166666666666667, -0.4166666666666667, -0.4114583333333333, -0.3984375, -0.3815104166666667, -0.3619791666666667, -0.34375, -0.3190104166666667, -0.3059895833333333, -0.2955729166666667, -0.2903645833333333, -0.2864583333333333, -0.2838541666666667, -0.2799479166666667, -0.2721354166666667, -0.265625, -0.2591145833333333, -0.25390625, -0.24479166666666666, -0.23567708333333334, -0.21744791666666666, -0.20703125, -0.19010416666666666, -0.17447916666666666, -0.16276041666666666, -0.15494791666666666, -0.14713541666666666, -0.13411458333333334, -0.12369791666666667, -0.11458333333333333, -0.10416666666666667, -0.09375, -0.08463541666666667, -0.07161458333333333, -0.061197916666666664, -0.049479166666666664, -0.0390625, -0.03125, -0.024739583333333332, -0.013020833333333334, -0.006510416666666667, 0.0, 0.006510416666666667, 0.014322916666666666, 0.024739583333333332, 0.033854166666666664, 0.040364583333333336, 0.04296875, 0.045572916666666664, 0.046875, 0.046875, 0.046875, 0.046875, 0.046875, 0.045572916666666664, 0.045572916666666664, 0.045572916666666664, 0.045572916666666664, 0.045572916666666664, 0.045572916666666664, 0.045572916666666664, 0.048177083333333336, 0.049479166666666664, 0.052083333333333336, 0.053385416666666664, 0.0546875, 0.0546875, 0.0546875, 0.0546875, 0.055989583333333336, 0.057291666666666664, 0.057291666666666664, 0.057291666666666664, 0.057291666666666664, 0.057291666666666664, 0.057291666666666664, 0.057291666666666664, 0.057291666666666664, 0.057291666666666664, 0.057291666666666664, 0.057291666666666664, 0.057291666666666664, 0.057291666666666664, 0.057291666666666664, 0.057291666666666664, 0.057291666666666664, 0.057291666666666664, 0.057291666666666664, 0.057291666666666664, 0.057291666666666664, 0.057291666666666664, 0.057291666666666664, 0.057291666666666664, 0.057291666666666664, 0.057291666666666664, 0.057291666666666664, 0.057291666666666664, 0.057291666666666664, 0.057291666666666664, 0.057291666666666664, 0.057291666666666664, 0.057291666666666664, 0.057291666666666664, 0.057291666666666664, 0.057291666666666664, 0.0546875, 0.053385416666666664, 0.048177083333333336, 0.044270833333333336, 0.041666666666666664, 0.0390625, 0.033854166666666664, 0.029947916666666668, 0.024739583333333332, 0.020833333333333332, 0.016927083333333332, 0.013020833333333334, 0.009114583333333334, 0.005208333333333333, 0.0013020833333333333, -0.0013020833333333333, -0.0026041666666666665, -0.00390625, -0.006510416666666667, -0.009114583333333334, -0.013020833333333334, -0.020833333333333332, -0.026041666666666668, -0.03125, -0.036458333333333336, -0.041666666666666664, -0.045572916666666664, -0.049479166666666664, -0.05078125, -0.05078125, -0.05078125, -0.05078125, -0.05078125, -0.05078125, -0.05078125, -0.05078125, -0.053385416666666664, -0.0546875, -0.057291666666666664, -0.0625, -0.07552083333333333, -0.08072916666666667, -0.0859375, -0.09114583333333333, -0.09505208333333333, -0.10026041666666667, -0.10416666666666667, -0.10416666666666667, -0.10416666666666667, -0.10416666666666667, -0.10416666666666667, -0.10416666666666667, -0.10416666666666667, -0.10416666666666667, -0.10416666666666667, -0.10416666666666667, -0.09765625, -0.08333333333333333, -0.06901041666666667, -0.0625, -0.0546875, -0.046875, -0.037760416666666664, -0.028645833333333332, -0.020833333333333332, -0.013020833333333334]","[0.0234375, 0.0234375, 0.0234375, 0.0234375, 0.0234375, 0.0234375, 0.0234375, 0.0234375, 0.0234375, 0.0234375, 0.0234375, 0.0234375, 0.0234375, 0.0234375, 0.0234375, 0.0234375, 0.0234375, 0.0234375, 0.0234375, 0.0234375, 0.0234375, 0.0234375, 0.0234375, 0.0234375, 0.0234375, 0.0234375, 0.0234375, 0.0234375, 0.0234375, 0.0234375, 0.0234375, 0.0234375, 0.0234375, 0.0234375, 0.0234375, 0.0234375, 0.0234375, 0.0234375, 0.0234375, 0.0234375, 0.0234375, 0.01953125, 0.01953125, 0.01953125, 0.01953125, 0.01953125, 0.01953125, 0.01953125, 0.01953125, 0.01953125, 0.01953125, 0.016927083333333332, 0.016927083333333332, 0.016927083333333332, 0.014322916666666666, 0.01171875, 0.010416666666666666, 0.0078125, 0.006510416666666667, 0.006510416666666667, 0.006510416666666667, 0.00390625, 0.0, -0.0026041666666666665, -0.0026041666666666665, -0.0026041666666666665, -0.00390625, -0.00390625, -0.00390625, -0.00390625, -0.00390625, -0.00390625, -0.00390625, -0.00390625, -0.00390625, -0.00390625, -0.00390625, -0.00390625, -0.00390625, -0.00390625, -0.006510416666666667, -0.013020833333333334, -0.016927083333333332, -0.022135416666666668, -0.024739583333333332, -0.026041666666666668, -0.028645833333333332, -0.029947916666666668, -0.029947916666666668, -0.029947916666666668, -0.029947916666666668, -0.029947916666666668, -0.029947916666666668, -0.028645833333333332, -0.02734375, -0.024739583333333332, -0.0234375, -0.022135416666666668, -0.01953125, -0.018229166666666668, -0.015625, -0.015625, -0.015625, -0.015625, -0.015625, -0.015625, -0.015625, -0.015625, -0.015625, -0.020833333333333332, -0.03515625, -0.04296875, -0.049479166666666664, -0.05078125, -0.052083333333333336, -0.052083333333333336, -0.053385416666666664, -0.0546875, -0.0546875, -0.055989583333333336, -0.055989583333333336, -0.055989583333333336, -0.055989583333333336, -0.055989583333333336, -0.05859375, -0.05859375, -0.05859375, -0.05859375, -0.059895833333333336, -0.061197916666666664, -0.06510416666666667, -0.06640625, -0.0703125, -0.07161458333333333, -0.07161458333333333, -0.07161458333333333, -0.07161458333333333, -0.07421875, -0.078125, -0.08072916666666667, -0.08333333333333333, -0.08333333333333333, -0.08333333333333333, -0.08333333333333333, -0.08463541666666667, -0.08723958333333333, -0.09114583333333333, -0.09375, -0.09375, -0.09375, -0.09375, -0.09375, -0.09375, -0.09375, -0.09244791666666667, -0.07682291666666667, -0.061197916666666664, -0.045572916666666664, -0.03125, -0.020833333333333332, -0.013020833333333334, -0.006510416666666667, -0.0026041666666666665, -0.0013020833333333333, 0.0, 0.0013020833333333333, 0.00390625, 0.00390625, 0.00390625, 0.00390625, 0.00390625, 0.00390625, 0.0026041666666666665, -0.005208333333333333, -0.013020833333333334, -0.015625, -0.015625, -0.015625, -0.015625, -0.015625, -0.018229166666666668, -0.020833333333333332, -0.022135416666666668, -0.0234375, -0.0234375, -0.0234375, -0.0234375, -0.0234375, -0.026041666666666668, -0.026041666666666668, -0.026041666666666668, -0.026041666666666668, -0.026041666666666668, -0.026041666666666668, -0.02734375, -0.02734375, -0.02734375, -0.02734375, -0.02734375, -0.02734375, -0.02734375, -0.02734375, -0.028645833333333332, -0.032552083333333336, -0.03515625, -0.0390625, -0.04296875, -0.045572916666666664, -0.045572916666666664, -0.046875, -0.046875, -0.046875, -0.046875, -0.046875, -0.046875, -0.046875, -0.046875, -0.046875, -0.046875, -0.046875, -0.046875, -0.046875, -0.046875, -0.046875, -0.046875, -0.048177083333333336, -0.049479166666666664, -0.052083333333333336, -0.055989583333333336, -0.05859375, -0.06640625, -0.07161458333333333, -0.07552083333333333, -0.08203125, -0.08463541666666667, -0.08854166666666667, -0.09114583333333333, -0.09375, -0.09765625, -0.1015625, -0.10546875, -0.109375, -0.11458333333333333, -0.1171875, -0.1171875, -0.11848958333333333, -0.11979166666666667, -0.11979166666666667, -0.11979166666666667, -0.11979166666666667, -0.11979166666666667, -0.11979166666666667, -0.11979166666666667, -0.11979166666666667, -0.11848958333333333, -0.09505208333333333, -0.07291666666666667, -0.053385416666666664, -0.0390625, -0.024739583333333332, 0.0026041666666666665, 0.020833333333333332, 0.033854166666666664, 0.04296875, 0.05078125, 0.055989583333333336, 0.059895833333333336, 0.06510416666666667, 0.06770833333333333, 0.0703125, 0.07161458333333333, 0.07161458333333333, 0.07161458333333333, 0.07161458333333333, 0.07161458333333333, 0.07161458333333333, 0.07161458333333333, 0.07161458333333333, 0.07161458333333333, 0.07161458333333333, 0.07161458333333333, 0.07161458333333333, 0.07161458333333333, 0.07161458333333333, 0.07161458333333333, 0.07161458333333333, 0.07942708333333333, 0.08333333333333333, 0.0859375, 0.08854166666666667, 0.09244791666666667, 0.09505208333333333, 0.09635416666666667, 0.09765625, 0.09765625, 0.09765625, 0.09765625, 0.09765625, 0.09765625, 0.09765625, 0.09765625, 0.09505208333333333, 0.09114583333333333, 0.08984375, 0.08984375, 0.08984375, 0.08984375, 0.08984375, 0.08854166666666667, 0.0859375, 0.07942708333333333, 0.0703125, 0.06640625, 0.0625, 0.059895833333333336, 0.05859375, 0.05859375, 0.057291666666666664, 0.055989583333333336, 0.055989583333333336, 0.055989583333333336, 0.055989583333333336, 0.055989583333333336, 0.057291666666666664, 0.05859375, 0.05859375, 0.05859375, 0.05859375, 0.05859375, 0.05859375, 0.0546875, 0.046875, 0.0390625, 0.029947916666666668, 0.020833333333333332, 0.01171875, -0.0026041666666666665, -0.006510416666666667, -0.010416666666666666, -0.013020833333333334, -0.014322916666666666, -0.014322916666666666, -0.015625, -0.015625, -0.016927083333333332, -0.018229166666666668, -0.020833333333333332, -0.0234375, -0.029947916666666668, -0.033854166666666664, -0.03515625, -0.037760416666666664, -0.0390625, -0.0390625, -0.0390625, -0.0390625, -0.03515625, -0.03125, -0.022135416666666668, -0.009114583333333334, 0.010416666666666666, 0.01953125, 0.02734375, 0.033854166666666664, 0.036458333333333336, 0.037760416666666664, 0.037760416666666664, 0.037760416666666664, 0.037760416666666664, 0.037760416666666664, 0.036458333333333336, 0.033854166666666664, 0.03125, 0.026041666666666668, 0.020833333333333332, 0.016927083333333332, 0.014322916666666666, 0.01171875, 0.01171875, 0.01171875, 0.01171875, 0.01171875, 0.01171875, 0.01171875, 0.014322916666666666, 0.015625, 0.015625, 0.015625, 0.015625, 0.015625, 0.015625, 0.015625, 0.014322916666666666, 0.010416666666666666, 0.005208333333333333, -0.0013020833333333333, -0.010416666666666666, -0.020833333333333332, -0.026041666666666668, -0.032552083333333336, -0.036458333333333336, -0.0390625, -0.040364583333333336, -0.041666666666666664, -0.04296875, -0.046875, -0.049479166666666664, -0.0546875, -0.061197916666666664, -0.06770833333333333, -0.07291666666666667, -0.08203125, -0.0859375, -0.0859375, -0.08723958333333333, -0.08723958333333333, -0.08854166666666667, -0.09375, -0.09635416666666667, -0.09895833333333333, -0.10026041666666667, -0.1015625, -0.1015625, -0.1015625, -0.1015625, -0.1015625, -0.09635416666666667, -0.08984375, -0.08333333333333333, -0.078125, -0.078125, -0.078125, -0.078125, -0.078125, -0.078125, -0.09114583333333333, -0.09635416666666667, -0.1015625, -0.10677083333333333, -0.109375, -0.11067708333333333, -0.109375, -0.10677083333333333, -0.10546875, -0.10546875, -0.10546875, -0.10546875, -0.10677083333333333, -0.10677083333333333, -0.10807291666666667, -0.109375, -0.109375, -0.11067708333333333, -0.11067708333333333, -0.11067708333333333, -0.11067708333333333, -0.11067708333333333, -0.11328125, -0.11458333333333333, -0.1171875, -0.12630208333333334, -0.1328125, -0.13411458333333334, -0.13802083333333334, -0.13932291666666666, -0.13932291666666666, -0.13411458333333334, -0.13020833333333334, -0.13151041666666666, -0.13802083333333334, -0.1484375, -0.16145833333333334, -0.18229166666666666, -0.19921875, -0.22005208333333334, -0.2421875, -0.2552083333333333, -0.26171875, -0.265625, -0.2682291666666667, -0.2708333333333333, -0.2734375, -0.2760416666666667, -0.2786458333333333, -0.2877604166666667, -0.30078125, -0.3072916666666667, -0.31640625, -0.3255208333333333, -0.3359375, -0.3450520833333333, -0.35546875, -0.359375, -0.36328125, -0.3658854166666667, -0.3658854166666667, -0.3658854166666667, -0.3658854166666667, -0.3658854166666667, -0.3619791666666667, -0.3528645833333333, -0.3346354166666667, -0.3138020833333333, -0.2955729166666667, -0.2591145833333333, -0.2265625, -0.18359375, -0.14453125, -0.109375, -0.078125, -0.037760416666666664, -0.015625, 0.0026041666666666665, 0.016927083333333332, 0.03125, 0.045572916666666664, 0.05859375, 0.07291666666666667, 0.07942708333333333, 0.08203125, 0.08463541666666667, 0.0859375, 0.0859375, 0.0859375, 0.0859375, 0.08463541666666667, 0.07942708333333333, 0.07552083333333333, 0.07161458333333333, 0.0703125, 0.0703125, 0.06901041666666667, 0.06901041666666667, 0.06640625, 0.06380208333333333, 0.05859375, 0.057291666666666664, 0.057291666666666664, 0.057291666666666664, 0.057291666666666664, 0.057291666666666664, 0.057291666666666664, 0.057291666666666664, 0.06380208333333333, 0.078125, 0.08854166666666667, 0.09765625, 0.10546875, 0.11067708333333333, 0.11067708333333333, 0.11067708333333333, 0.109375, 0.10677083333333333, 0.10286458333333333, 0.10026041666666667, 0.09375, 0.08854166666666667, 0.08463541666666667, 0.08072916666666667, 0.07682291666666667, 0.07291666666666667, 0.07161458333333333, 0.0703125, 0.06640625, 0.06380208333333333, 0.059895833333333336, 0.057291666666666664, 0.055989583333333336, 0.0546875, 0.052083333333333336, 0.05078125, 0.045572916666666664, 0.0390625, 0.028645833333333332, 0.015625, 0.005208333333333333, -0.005208333333333333, -0.014322916666666666, -0.020833333333333332, -0.0234375, -0.024739583333333332, -0.026041666666666668, -0.02734375, -0.029947916666666668, -0.040364583333333336, -0.052083333333333336, -0.06510416666666667, -0.07682291666666667, -0.09244791666666667, -0.10807291666666667, -0.1328125, -0.14192708333333334, -0.14713541666666666, -0.15104166666666666, -0.15364583333333334, -0.15755208333333334, -0.16145833333333334, -0.16927083333333334, -0.17838541666666666, -0.19010416666666666, -0.20182291666666666, -0.21744791666666666, -0.23567708333333334, -0.2643229166666667, -0.2890625, -0.30859375, -0.328125, -0.3372395833333333, -0.3424479166666667, -0.3424479166666667, -0.3424479166666667, -0.3424479166666667, -0.3411458333333333, -0.3229166666666667, -0.29296875, -0.2643229166666667, -0.22916666666666666, -0.20182291666666666, -0.16927083333333334, -0.13151041666666666, -0.08723958333333333, -0.049479166666666664, -0.005208333333333333, 0.016927083333333332, 0.03515625, 0.044270833333333336, 0.049479166666666664, 0.053385416666666664, 0.057291666666666664, 0.059895833333333336, 0.0625, 0.06901041666666667, 0.07682291666666667, 0.0859375, 0.09895833333333333, 0.10677083333333333, 0.11458333333333333, 0.12109375, 0.12760416666666666, 0.13541666666666666, 0.1484375, 0.15234375, 0.15494791666666666, 0.15625, 0.15755208333333334, 0.15885416666666666, 0.16145833333333334, 0.16536458333333334, 0.17317708333333334, 0.18229166666666666, 0.19010416666666666, 0.203125, 0.21614583333333334, 0.22265625, 0.22916666666666666, 0.23307291666666666, 0.23307291666666666, 0.23307291666666666, 0.23307291666666666, 0.23307291666666666, 0.234375, 0.23567708333333334, 0.23567708333333334, 0.23567708333333334, 0.23567708333333334, 0.23177083333333334, 0.22786458333333334, 0.22395833333333334, 0.22265625, 0.22265625, 0.22135416666666666, 0.22135416666666666, 0.22135416666666666, 0.21875, 0.21744791666666666, 0.21614583333333334, 0.21484375, 0.2109375, 0.20833333333333334, 0.203125, 0.19791666666666666, 0.1953125, 0.19270833333333334, 0.19010416666666666, 0.18619791666666666, 0.18359375, 0.18098958333333334, 0.1796875, 0.1796875, 0.1796875, 0.1796875, 0.1796875, 0.1796875, 0.18359375, 0.18880208333333334, 0.19401041666666666, 0.20182291666666666, 0.20703125, 0.20833333333333334, 0.2109375, 0.2109375, 0.2109375, 0.20963541666666666, 0.20572916666666666, 0.203125, 0.20182291666666666, 0.19921875, 0.19791666666666666, 0.1953125, 0.19270833333333334, 0.19140625, 0.19010416666666666, 0.19010416666666666, 0.19010416666666666, 0.19010416666666666, 0.19010416666666666, 0.19270833333333334, 0.19791666666666666, 0.20182291666666666, 0.20833333333333334, 0.21223958333333334, 0.21875, 0.22526041666666666, 0.22916666666666666, 0.23697916666666666, 0.24088541666666666, 0.24479166666666666, 0.24609375, 0.24869791666666666, 0.2526041666666667, 0.25390625, 0.2578125, 0.2604166666666667, 0.265625, 0.2721354166666667, 0.27734375, 0.28125, 0.2877604166666667, 0.2903645833333333, 0.2955729166666667, 0.2981770833333333, 0.2994791666666667, 0.30078125, 0.3020833333333333, 0.3033854166666667, 0.3033854166666667, 0.3033854166666667, 0.3046875, 0.3072916666666667, 0.3098958333333333, 0.3125, 0.3177083333333333, 0.3255208333333333, 0.33203125, 0.3359375, 0.33984375, 0.3424479166666667, 0.3450520833333333, 0.3489583333333333, 0.3515625, 0.3528645833333333, 0.3541666666666667, 0.3580729166666667, 0.3606770833333333, 0.3684895833333333, 0.3723958333333333, 0.375, 0.3802083333333333, 0.3841145833333333, 0.38671875, 0.390625, 0.3919270833333333, 0.3932291666666667, 0.39453125, 0.39453125, 0.39453125, 0.39453125, 0.39453125, 0.3971354166666667, 0.3984375, 0.4010416666666667, 0.4036458333333333, 0.4049479166666667, 0.40625, 0.40625, 0.40625, 0.40625, 0.40625, 0.40625, 0.40625, 0.40625, 0.4049479166666667, 0.4049479166666667, 0.3997395833333333, 0.39453125, 0.390625, 0.3828125, 0.3763020833333333, 0.3684895833333333, 0.3606770833333333, 0.3515625, 0.3424479166666667, 0.328125, 0.31640625, 0.3033854166666667, 0.2877604166666667, 0.26953125, 0.25, 0.21875, 0.20442708333333334, 0.1875, 0.17447916666666666, 0.15885416666666666, 0.14583333333333334, 0.13151041666666666, 0.11067708333333333, 0.09505208333333333, 0.08203125, 0.06770833333333333, 0.052083333333333336, 0.033854166666666664, 0.014322916666666666, 0.0026041666666666665, -0.00390625, -0.009114583333333334, -0.010416666666666666, -0.014322916666666666, -0.016927083333333332, -0.01953125, -0.022135416666666668, -0.024739583333333332, -0.028645833333333332, -0.033854166666666664, -0.037760416666666664, -0.044270833333333336, -0.044270833333333336, -0.044270833333333336, -0.044270833333333336, -0.041666666666666664, -0.0390625, -0.032552083333333336, -0.029947916666666668, -0.026041666666666668, -0.0234375, -0.016927083333333332, -0.01171875, -0.0078125, -0.0078125, -0.0078125, -0.0078125, -0.01171875, -0.01953125, -0.0234375, -0.0234375, -0.0234375, -0.020833333333333332, -0.01953125, -0.018229166666666668, -0.016927083333333332, -0.015625]","[0, 0, 0, 0, 0, 0, 0, 0, 0, 0, 0, 0, 0, 0, 0, 0, 0, 0, 0, 0, 0, 0, 0, 0, 0, 0, 0, 0, 0, 0, 0, 0, 0, 0, 0, 0, 0, 0, 0, 0, 0, 0, 0, 0, 0, 0, 0, 0, 0, 0, 0, 0, 0, 0, 0, 0, 0, 0, 0, 0, 0, 0, 0, 0, 0, 0, 0, 0, 0, 0, 0, 0, 0, 0, 0, 0, 0, 0, 0, 0, 0, 0, 0, 0, 0, 0, 0, 0, 0, 0, 0, 0, 0, 0, 0, 0, 0, 0, 0, 0, 0, 0, 0, 0, 0, 0, 0, 0, 0, 0, 0, 0, 0, 0, 0, 0, 0, 0, 0, 0, 0, 0, 0, 0, 0, 0, 0, 0, 0, 0, 0, 0, 0, 0, 0, 0, 0, 0, 0, 0, 0, 0, 0, 0, 0, 0, 0, 0, 0, 0, 0, 0, 0, 0, 0, 0, 0, 0, 0, 0, 0, 0, 0, 0, 0, 0, 0, 0, 0, 0, 0, 0, 0, 0, 0, 0, 0, 0, 0, 0, 0, 0, 0, 0, 0, 0, 0, 0, 0, 0, 0, 0, 0, 0, 0, 0, 0, 0, 0, 0, 0, 0, 0, 0, 0, 0, 0, 0, 0, 0, 0, 0, 0, 0, 0, 0, 0, 0, 0, 0, 0, 0, 0, 0, 0, 0, 0, 0, 0, 0, 0, 0, 0, 0, 0, 0, 0, 0, 0, 0, 0, 0, 0, 0, 0, 0, 0, 0, 0, 0, 0, 0, 0, 0, 0, 0, 0, 0, 0, 0, 0, 0, 0, 0, 0, 0, 0, 0, 0, 0, 0, 0, 0, 0, 0, 0, 0, 0, 0, 0, 0, 0, 0, 0, 0, 0, 0, 0, 0, 0, 0, 0, 0, 0, 0, 0, 0, 0, 0, 0, 0, 0, 0, 0, 0, 0, 0, 0, 0, 0, 0, 0, 0, 0, 0, 0, 0, 0, 0, 0, 0, 0, 0, 0, 0, 0, 0, 0, 0, 0, 0, 0, 0, 0, 0, 0, 0, 0, 0, 0, 0, 0, 0, 0, 0, 0, 0, 0, 0, 0, 0, 0, 0, 0, 0, 0, 0, 0, 0, 0, 0, 0, 0, 0, 0, 0, 0, 0, 0, 0, 0, 0, 0, 0, 0, 0, 0, 0, 0, 0, 0, 0, 0, 0, 0, 0, 0, 0, 0, 0, 0, 0, 0, 0, 0, 0, 0, 0, 0, 0, 0, 0, 0, 0, 0, 0, 0, 0, 0, 0, 0, 0, 0, 0, 0, 0, 0, 0, 0, 0, 0, 0, 0, 0, 0, 0, 0, 0, 0, 0, 0, 0, 0, 0, 0, 0, 0, 0, 0, 0, 0, 0, 0, 0, 0, 0, 0, 0, 0, 0, 0, 0, 0, 0, 0, 0, 0, 0, 0, 0, 0, 0, 0, 0, 0, 0, 0, 0, 0, 0, 0, 0, 0, 0, 0, 0, 0, 0, 0, 0, 0, 0, 0, 0, 0, 0, 0, 0, 0, 0, 0, 0, 0, 0, 0, 0, 0, 0, 0, 0, 0, 0, 0, 0, 0, 0, 0, 0, 0, 0, 0, 0, 0, 0, 0, 0, 0, 0, 0, 0, 0, 0, 0, 0, 0, 0, 0, 0, 0, 0, 0, 0, 0, 0, 0, 0, 0, 0, 0, 0, 0, 0, 0, 0, 0, 0, 0, 0, 0, 0, 0, 0, 0, 0, 0, 0, 0, 0, 0, 0, 0, 0, 0, 0, 0, 0, 0, 0, 0, 0, 0, 0, 0, 0, 0, 0, 0, 0, 0, 0, 0, 0, 0, 0, 0, 0, 0, 0, 0, 0, 0, 0, 0, 0, 0, 0, 0, 0, 0, 0, 0, 0, 0, 0, 0, 0, 0, 0, 0, 0, 0, 0, 0, 0, 0, 0, 0, 0, 0, 0, 0, 0, 0, 0, 0, 0, 0, 0, 0, 0, 0, 0, 0, 0, 0, 0, 0, 0, 0, 0, 0, 0, 0, 0, 0, 0, 0, 0, 0, 0, 0, 0, 0, 0, 0, 0, 0, 0, 0, 0, 0, 0, 0, 0, 0, 0, 0, 0, 0, 0, 0, 0, 0, 0, 0, 0, 0, 0, 0, 0, 0, 0, 0, 0, 0, 0, 0, 0, 0, 0, 0, 0, 0, 0, 0, 0, 0, 0, 0, 0, 0, 0, 0, 0, 0, 0, 0, 0, 0, 0, 0, 0, 0, 0, 0, 0, 0, 0, 0, 0, 0, 0, 0, 0, 0, 0, 0, 0, 0, 0, 0, 0, 0, 0, 0, 0, 0, 0, 0, 0, 0, 0, 0, 0, 0, 0, 0, 0, 0, 0, 0, 0, 0, 0, 0, 0, 0, 0, 0, 0, 0, 0, 0, 0, 0, 0, 0, 0, 0, 0, 0, 0, 0, 0, 0, 0, 0, 0, 0, 0, 0, 0, 0, 0, 0, 0, 0, 0, 0, 0, 0, 0, 0, 0, 0, 0, 0, 0, 0, 0, 0, 0, 0, 0, 0, 0, 0, 0, 0, 0, 0, 0, 0, 0, 0, 0, 0, 0, 0, 0, 0, 0, 0, 0, 0, 0, 0, 0, 0, 0, 0, 0, 0, 0, 0, 0, 0, 0, 0, 0, 0, 0, 0, 0, 0, 0, 0, 0, 0, 0, 0, 0, 0, 0, 0, 0, 0, 0, 0, 0]","[0, 0, 0, 0, 0, 0, 0, 0, 0, 0, 0, 0, 0, 0, 0, 0, 0, 0, 0, 0, 0, 0, 0, 0, 0, 0, 0, 0, 0, 0, 0, 0, 0, 0, 0, 0, 0, 0, 0, 0, 0, 0, 0, 0, 0, 0, 0, 0, 0, 0, 0, 0, 0, 0, 0, 0, 0, 0, 0, 0, 0, 0, 0, 0, 0, 0, 0, 0, 0, 0, 0, 0, 0, 0, 0, 0, 0, 0, 0, 0, 0, 0, 0, 0, 0, 0, 0, 0, 0, 0, 0, 0, 0, 0, 0, 0, 0, 0, 0, 0, 0, 0, 0, 0, 0, 0, 0, 0, 0, 0, 0, 0, 0, 0, 0, 0, 0, 0, 0, 0, 0, 0, 0, 0, 0, 0, 0, 0, 0, 0, 0, 0, 0, 0, 0, 0, 0, 0, 0, 0, 0, 0, 0, 0, 0, 0, 0, 0, 0, 0, 0, 0, 0, 0, 0, 0, 0, 0, 0, 0, 0, 0, 0, 0, 0, 0, 0, 0, 0, 0, 0, 0, 0, 0, 0, 0, 0, 0, 0, 0, 0, 0, 0, 0, 0, 0, 0, 0, 0, 0, 0, 0, 0, 0, 0, 0, 0, 0, 0, 0, 0, 0, 0, 0, 0, 0, 0, 0, 0, 0, 0, 0, 0, 0, 0, 0, 0, 0, 0, 0, 0, 0, 0, 0, 0, 0, 0, 0, 0, 0, 0, 0, 0, 0, 0, 0, 0, 0, 0, 0, 0, 0, 0, 0, 0, 0, 0, 0, 0, 0, 0, 0, 0, 0, 0, 0, 0, 0, 0, 0, 0, 0, 0, 0, 0, 0, 0, 0, 0, 0, 0, 0, 0, 0, 0, 0, 0, 0, 0, 0, 0, 0, 0, 0, 0, 0, 0, 0, 0, 0, 0, 0, 0, 0, 0, 0, 0, 0, 0, 0, 0, 0, 0, 0, 0, 0, 0, 0, 0, 0, 0, 0, 0, 0, 0, 0, 0, 0, 0, 0, 0, 0, 0, 0, 0, 0, 0, 0, 0, 0, 0, 0, 0, 0, 0, 0, 0, 0, 0, 0, 0, 0, 0, 0, 0, 0, 0, 0, 0, 0, 0, 0, 0, 0, 0, 0, 0, 0, 0, 0, 0, 0, 0, 0, 0, 0, 0, 0, 0, 0, 0, 0, 0, 0, 0, 0, 0, 0, 0, 0, 0, 0, 0, 0, 0, 0, 0, 0, 0, 0, 0, 0, 0, 0, 0, 0, 0, 0, 0, 0, 0, 0, 0, 0, 0, 0, 0, 0, 0, 0, 0, 0, 0, 0, 0, 0, 0, 0, 0, 0, 0, 0, 0, 0, 0, 0, 0, 0, 0, 0, 0, 0, 0, 0, 0, 0, 0, 0, 0, 0, 0, 0, 0, 0, 0, 0, 0, 0, 0, 0, 0, 0, 0, 0, 0, 0, 0, 0, 0, 0, 0, 0, 0, 0, 0, 0, 0, 0, 0, 0, 0, 0, 0, 0, 0, 0, 0, 0, 0, 0, 0, 0, 0, 0, 0, 0, 0, 0, 0, 0, 0, 0, 0, 0, 0, 0, 0, 0, 0, 0, 0, 0, 0, 0, 0, 0, 0, 0, 0, 0, 0, 0, 0, 0, 0, 0, 0, 0, 0, 0, 0, 0, 0, 0, 0, 0, 0, 0, 0, 0, 0, 0, 0, 0, 0, 0, 0, 0, 0, 0, 0, 0, 0, 0, 0, 0, 0, 0, 0, 0, 0, 0, 0, 0, 0, 0, 0, 0, 0, 0, 0, 0, 0, 0, 0, 0, 0, 0, 0, 0, 0, 0, 0, 0, 0, 0, 0, 0, 0, 0, 0, 0, 0, 0, 0, 0, 0, 0, 0, 0, 0, 0, 0, 0, 0, 0, 0, 0, 0, 0, 0, 0, 0, 0, 0, 0, 0, 0, 0, 0, 0, 0, 0, 0, 0, 0, 0, 0, 0, 0, 0, 0, 0, 0, 0, 0, 0, 0, 0, 0, 0, 0, 0, 0, 0, 0, 0, 0, 0, 0, 0, 0, 0, 0, 0, 0, 0, 0, 0, 0, 0, 0, 0, 0, 0, 0, 0, 0, 0, 0, 0, 0, 0, 0, 0, 0, 0, 0, 0, 0, 0, 0, 0, 0, 0, 0, 0, 0, 0, 0, 0, 0, 0, 0, 0, 0, 0, 0, 0, 0, 0, 0, 0, 0, 0, 0, 0, 0, 0, 0, 0, 0, 0, 0, 0, 0, 0, 0, 0, 0, 0, 0, 0, 0, 0, 0, 0, 0, 0, 0, 0, 0, 0, 0, 0, 0, 0, 0, 0, 0, 0, 0, 0, 0, 0, 0, 0, 0, 0, 0, 0, 0, 0, 0, 0, 0, 0, 0, 0, 0, 0, 0, 0, 0, 0, 0, 0, 0, 0, 0, 0, 0, 0, 0, 0, 0, 0, 0, 0, 0, 0, 0, 0, 0, 0, 0, 0, 0, 0, 0, 0, 0, 0, 0, 0, 0, 0, 0, 0, 0, 0, 0, 0, 0, 0, 0, 0, 0, 0, 0, 0, 0, 0, 0, 0, 0, 0, 0, 0, 0, 0, 0, 0, 0, 0, 0, 0, 0, 0, 0, 0, 0, 0, 0, 0, 0, 0, 0, 0, 0, 0, 0, 0, 0, 0, 0, 0, 0, 0, 0, 0, 0, 0, 0, 0, 0, 0, 0, 0, 0, 0, 0, 0, 0, 0, 0, 0, 0, 0, 0]","[0, 0, 0, 0, 0, 0, 0, 0, 0, 0, 0, 0, 0, 0, 0, 0, 0, 0, 0, 0, 0, 0, 0, 0, 0, 0, 0, 0, 0, 0, 0, 0, 0, 0, 0, 0, 0, 0, 0, 0, 0, 0, 0, 0, 0, 0, 0, 0, 0, 0, 0, 0, 0, 0, 0, 0, 0, 0, 0, 0, 0, 0, 0, 0, 0, 0, 0, 0, 0, 0, 0, 0, 0, 0, 0, 0, 0, 0, 0, 0, 0, 0, 0, 0, 0, 0, 0, 0, 0, 0, 0, 0, 0, 0, 0, 0, 0, 0, 0, 0, 0, 0, 0, 0, 0, 0, 0, 0, 0, 0, 0, 0, 0, 0, 0, 0, 0, 0, 0, 0, 0, 0, 0, 0, 0, 0, 0, 0, 0, 0, 0, 0, 0, 0, 0, 0, 0, 0, 0, 0, 0, 0, 0, 0, 0, 0, 0, 0, 0, 0, 0, 0, 0, 0, 0, 0, 0, 0, 0, 0, 0, 0, 0, 0, 0, 0, 0, 0, 0, 0, 0, 0, 0, 0, 0, 0, 0, 0, 0, 0, 0, 0, 0, 0, 0, 0, 0, 0, 0, 0, 0, 0, 0, 0, 0, 0, 0, 0, 0, 0, 0, 0, 0, 0, 0, 0, 0, 0, 0, 0, 0, 0, 0, 0, 0, 0, 0, 0, 0, 0, 0, 0, 0, 0, 0, 0, 0, 0, 0, 0, 0, 0, 0, 0, 0, 0, 0, 0, 0, 0, 0, 0, 0, 0, 0, 0, 0, 0, 0, 0, 0, 0, 0, 0, 0, 0, 0, 0, 0, 0, 0, 0, 0, 0, 0, 0, 0, 0, 0, 0, 0, 0, 0, 0, 0, 0, 0, 0, 0, 0, 0, 0, 0, 0, 0, 0, 0, 0, 0, 0, 0, 0, 0, 0, 0, 0, 0, 0, 0, 0, 0, 0, 0, 0, 0, 0, 0, 0, 0, 0, 0, 0, 0, 0, 0, 0, 0, 0, 0, 0, 0, 0, 0, 0, 0, 0, 0, 0, 0, 0, 0, 0, 0, 0, 0, 0, 0, 0, 0, 0, 0, 0, 0, 0, 0, 0, 0, 0, 0, 0, 0, 0, 0, 0, 0, 0, 0, 0, 0, 0, 0, 0, 0, 0, 0, 0, 0, 0, 0, 0, 0, 0, 0, 0, 0, 0, 0, 0, 0, 0, 0, 0, 0, 0, 0, 0, 0, 0, 0, 0, 0, 0, 0, 0, 0, 0, 0, 0, 0, 0, 0, 0, 0, 0, 0, 0, 0, 0, 0, 0, 0, 0, 0, 0, 0, 0, 0, 0, 0, 0, 0, 0, 0, 0, 0, 0, 0, 0, 0, 0, 0, 0, 0, 0, 0, 0, 0, 0, 0, 0, 0, 0, 0, 0, 0, 0, 0, 0, 0, 0, 0, 0, 0, 0, 0, 0, 0, 0, 0, 0, 0, 0, 0, 0, 0, 0, 0, 0, 0, 0, 0, 0, 0, 0, 0, 0, 0, 0, 0, 0, 0, 0, 0, 0, 0, 0, 0, 0, 0, 0, 0, 0, 0, 0, 0, 0, 0, 0, 0, 0, 0, 0, 0, 0, 0, 0, 0, 0, 0, 0, 0, 0, 0, 0, 0, 0, 0, 0, 0, 0, 0, 0, 0, 0, 0, 0, 0, 0, 0, 0, 0, 0, 0, 0, 0, 0, 0, 0, 0, 0, 0, 0, 0, 0, 0, 0, 0, 0, 0, 0, 0, 0, 0, 0, 0, 0, 0, 0, 0, 0, 0, 0, 0, 0, 0, 0, 0, 0, 0, 0, 0, 0, 0, 0, 0, 0, 0, 0, 0, 0, 0, 0, 0, 0, 0, 0, 0, 0, 0, 0, 0, 0, 0, 0, 0, 0, 0, 0, 0, 0, 0, 0, 0, 0, 0, 0, 0, 0, 0, 0, 0, 0, 0, 0, 0, 0, 0, 0, 0, 0, 0, 0, 0, 0, 0, 0, 0, 0, 0, 0, 0, 0, 0, 0, 0, 0, 0, 0, 0, 0, 0, 0, 0, 0, 0, 0, 0, 0, 0, 0, 0, 0, 0, 0, 0, 0, 0, 0, 0, 0, 0, 0, 0, 0, 0, 0, 0, 0, 0, 0, 0, 0, 0, 0, 0, 0, 0, 0, 0, 0, 0, 0, 0, 0, 0, 0, 0, 0, 0, 0, 0, 0, 0, 0, 0, 0, 0, 0, 0, 0, 0, 0, 0, 0, 0, 0, 0, 0, 0, 0, 0, 0, 0, 0, 0, 0, 0, 0, 0, 0, 0, 0, 0, 0, 0, 0, 0, 0, 0, 0, 0, 0, 0, 0, 0, 0, 0, 0, 0, 0, 0, 0, 0, 0, 0, 0, 0, 0, 0, 0, 0, 0, 0, 0, 0, 0, 0, 0, 0, 0, 0, 0, 0, 0, 0, 0, 0, 0, 0, 0, 0, 0, 0, 0, 0, 0, 0, 0, 0, 0, 0, 0, 0, 0, 0, 0, 0, 0, 0, 0, 0, 0, 0, 0, 0, 0, 0, 0, 0, 0, 0, 0, 0, 0, 0, 0, 0, 0, 0, 0, 0, 0, 0, 0, 0, 0, 0, 0, 0, 0, 0, 0, 0, 0, 0, 0, 0, 0, 0, 0, 0, 0, 0, 0, 0, 0, 0, 0, 0, 0, 0, 0, 0, 0, 0, 0, 0, 0, 0, 0, 0, 0, 0, 0, 0, 0, 0, 0, 0, 0]","[0.002822800073772669, 0.013514999998733401, 0.029750999994575977, 0.04674020002130419, 0.06314420001581311, 0.07982770004309714, 0.09639980003703386, 0.11307720001786947, 0.12969980004709214, 0.14650680008344352, 0.16315949999261647, 0.17981490003876388, 0.1967782999854535, 0.21306730003561825, 0.2300944000016898, 0.24644969997461885, 0.26301260001491755, 0.27975640003569424, 0.2967340999748558, 0.3130549000343308, 0.3297195000341162, 0.34637090004980564, 0.36310379998758435, 0.37971950008068234, 0.3962529000127688, 0.41302119998726994, 0.4301425999728963, 0.4463988000061363, 0.4633644000859931, 0.47967490006703883, 0.4963800000259653, 0.5130025000544265, 0.5297981000039726, 0.5463193000759929, 0.562895099981688, 0.579652399988845, 0.5963345000054687, 0.6129944000858814, 0.6303886000532657, 0.6465698999818414, 0.6638004999840632, 0.6795079000294209, 0.6962617000099272, 0.712951400084421, 0.729870600043796, 0.746360499993898, 0.7629913000855595, 0.779685000074096, 0.7966573999729007, 0.8131765000289306, 0.8299222000641748, 0.8466213999781758, 0.8639807000290602, 0.8799032000824809, 0.8966268000658602, 0.9133200000505894, 0.9299414000706747, 0.9465238000266254, 0.9632584999781102, 0.9798588000703603, 0.9965440999949351, 1.013319900026545, 1.0306258000200614, 1.0462540000444278, 1.0628345999866724, 1.0797648000298068, 1.0963731000665575, 1.112861100002192, 1.129505200078711, 1.1462401000317186, 1.1628224999876693, 1.1795189999975264, 1.1960216000443324, 1.212692999979481, 1.2294104000320658, 1.2461952000157908, 1.263156000059098, 1.2798020000336692, 1.2965500999707729, 1.3130067000165582, 1.329735100036487, 1.346408599987626, 1.3629997000098228, 1.3800419999752194, 1.3965681000845507, 1.4132594000548124, 1.4298710000002757, 1.4462543000699952, 1.463104100083001, 1.4801901000319049, 1.4963794000213966, 1.5129033999983221, 1.5297605000669137, 1.546398299979046, 1.5631237999768928, 1.5797904999926686, 1.5962697999784723, 1.61282330006361, 1.6300604999996722, 1.6467977000866085, 1.6629002999980003, 1.679453800083138, 1.6962927000131458, 1.7127326000481844, 1.7294411000330001, 1.7460002000443637, 1.7627024999819696, 1.7793904000427574, 1.796356700011529, 1.812809200026095, 1.829901900026016, 1.8466466000536457, 1.8630058000562713, 1.8795794000616297, 1.8964355000061914, 1.9128113000188023, 1.929560200078413, 1.946271000080742, 1.9630247000604868, 1.9795973000582308, 1.996438100002706, 2.0126445000059903, 2.0301837000297382, 2.0467342999763787, 2.0629575999919325, 2.07926580007188, 2.09638400003314, 2.112846300005913, 2.129769999999553, 2.1467029000632465, 2.162739200051874, 2.179212999995798, 2.1958112000720575, 2.2122058999957517, 2.2288458000402898, 2.245580799994059, 2.262773400056176, 2.279317400068976, 2.295862000086345, 2.31277120008599, 2.3292551999911666, 2.3462296000216156, 2.362561500049196, 2.379489800077863, 2.396414300077595, 2.412720500025898, 2.429429900017567, 2.4459366999799386, 2.462663699989207, 2.479174599982798, 2.4958895000163466, 2.5126957000466064, 2.5291835999814793, 2.5461160000413656, 2.562838100013323, 2.5794759000418708, 2.5962271000025794, 2.6134398999856785, 2.6295205000787973, 2.6459863000782207, 2.6629769999999553, 2.6794263999909163, 2.696094400016591, 2.7130843000486493, 2.7294044999871403, 2.746053299983032, 2.7625233000144362, 2.7791420000139624, 2.7958208000054583, 2.8124823999824002, 2.829322300036438, 2.845957800047472, 2.8628961000358686, 2.8793332000495866, 2.8960902000544593, 2.9125242000445724, 2.929055100074038, 2.9456944999983534, 2.9624692000215873, 2.9792954999720678, 2.9960350000765175, 3.0126890999963507, 3.0293828999856487, 3.045793400029652, 3.062255800003186, 3.079126500058919, 3.0956895999843255, 3.112527000019327, 3.1290004000766203, 3.1460017000790685, 3.1622825000667945, 3.179268400068395, 3.195652600028552, 3.212606200017035, 3.2293245000764728, 3.2456165000330657, 3.26232490001712, 3.278995200060308, 3.2956565000349656, 3.3123675000388175, 3.32901360001415, 3.3460625000298023, 3.3624927999917418, 3.3793323000427336, 3.3960248000221327, 3.412566000013612, 3.429270000080578, 3.4462951000314206, 3.462683800025843, 3.4791163000045344, 3.495907200034708, 3.5125578000443056, 3.5290380000369623, 3.545840200036764, 3.562791600008495, 3.5790543999755755, 3.5958442999981344, 3.612515000044368, 3.6289107999764383, 3.6456276000244543, 3.6622315000277013, 3.678931500064209, 3.6956162999849766, 3.7126837000250816, 3.728926100069657, 3.7462539999978617, 3.762526400038041, 3.779232300003059, 3.795769900083542, 3.812590299989097, 3.8292390999849886, 3.8457761000609025, 3.8624734000768512, 3.879258800065145, 3.8957396000623703, 3.9124659000663087, 3.9291323000798, 3.9464302000124007, 3.9625168000347912, 3.97910460003186, 3.995816200040281, 4.012549199978821, 4.029084600042552, 4.045776900020428, 4.062259900034405, 4.079086899990216, 4.095487000071444, 4.112122900085524, 4.12865420000162, 4.1454847999848425, 4.162490100017749, 4.179030600003898, 4.195465600001626, 4.212393400026485, 4.22917090007104, 4.245642900001258, 4.262454500072636, 4.278996400069445, 4.295786699978635, 4.312379500013776, 4.329074200009927, 4.3456580999773, 4.362650100025348, 4.379062400083058, 4.395666899974458, 4.412393599981442, 4.42904489999637, 4.445574500015937, 4.462387099978514, 4.479496799991466, 4.495442799990997, 4.51196420006454, 4.528780300053768, 4.545411000028253, 4.561945200082846, 4.57865669997409, 4.59523800003808, 4.61197580001317, 4.628615500056185, 4.645303099998273, 4.662171500036493, 4.678692499990575, 4.6953861999791116, 4.712029700051062, 4.7287908999715, 4.745631700032391, 4.7622299999929965, 4.778874300071038, 4.795543699990958, 4.812256900011562, 4.8289401000365615, 4.845647800015286, 4.862303600064479, 4.878615400055423, 4.895307200029492, 4.911724200006574, 4.928562400047667, 4.945110199972987, 4.961921500042081, 4.978493300033733, 4.996278800070286, 5.0120436999714, 5.028866600012407, 5.045480399974622, 5.06191819999367, 5.078566599986516, 5.095247499994002, 5.111869900021702, 5.128847400075756, 5.1454838999779895, 5.1623169999802485, 5.178803800023161, 5.195379200042225, 5.21225930005312, 5.228935300023295, 5.245442099985667, 5.262222800054587, 5.278859300073236, 5.2953810000326484, 5.312341300072148, 5.328777100075968, 5.345391500042751, 5.362249199999496, 5.378822900005616, 5.395381500013173, 5.412188400048763, 5.428510099998675, 5.445052299997769, 5.461851499974728, 5.478743600076996, 5.495399400009774, 5.512289199978113, 5.5287234000861645, 5.545331600005738, 5.562013500020839, 5.578904499998316, 5.595333400066011, 5.612404600018635, 5.628806699998677, 5.645379800000228, 5.662170400028117, 5.6787449000403285, 5.695257300045341, 5.712727000005543, 5.7289808000205085, 5.745345600065775, 5.761878999997862, 5.778728000004776, 5.795202000066638, 5.8118796000489965, 5.828661400009878, 5.8452641000039876, 5.8616882000351325, 5.878230200032704, 5.89522790000774, 5.911982099991292, 5.928757300018333, 5.945309999980964, 5.961928199976683, 5.97853490000125, 5.995189300039783, 6.011953499983065, 6.028558199992403, 6.04523909999989, 6.061832300038077, 6.078292499994859, 6.095063399989158, 6.111743099987507, 6.128648000070825, 6.145251400070265, 6.161866500042379, 6.178438100032508, 6.195224200026132, 6.2118626000592485, 6.228814800037071, 6.245207600062713, 6.26201740000397, 6.278781500062905, 6.2951355000259355, 6.311946099973284, 6.328291499987245, 6.345177500043064, 6.3620366000104696, 6.378518900019117, 6.395125800045207, 6.411829899996519, 6.428626400069334, 6.445192600018345, 6.461906400043517, 6.478471799986437, 6.49496799998451, 6.511446100077592, 6.528476800071076, 6.545103300013579, 6.56186430004891, 6.578421900048852, 6.595056700054556, 6.611723400070332, 6.628565200022422, 6.645377299981192, 6.6618165000109, 6.678437000024132, 6.695055300020613, 6.711614100029692, 6.72838700003922, 6.745272899977863, 6.761667700018734, 6.77842149999924, 6.794992499984801, 6.81167219998315, 6.828554300009273, 6.8450793999945745, 6.861551500041969, 6.8784030000679195, 6.894826399977319, 6.911993600078858, 6.928460100083612, 6.94513080001343, 6.9615940999938175, 6.978379499982111, 6.995073499972932, 7.0117063000798225, 7.0281233000569046, 7.045004400075413, 7.0615969999926165, 7.078459099982865, 7.094985999981873, 7.1116388000082225, 7.128360399976373, 7.14476390008349, 7.16140570002608, 7.178025300032459, 7.194667599978857, 7.211556100053713, 7.228426499990746, 7.24511690007057, 7.262308800010942, 7.278433099971153, 7.294986100052483, 7.311563100083731, 7.328397599980235, 7.345055800047703, 7.362128900014795, 7.378390999976546, 7.39493389998097, 7.411603200016543, 7.428318600053899, 7.444915700005367, 7.461224699974991, 7.478257199982181, 7.495040200068615, 7.511598400073126, 7.528193600010127, 7.544691400020383, 7.561243599979207, 7.577986299991608, 7.594795000040904, 7.611482799984515, 7.628262900048867, 7.645002200035378, 7.661574600031599, 7.67814630002249, 7.6948951000813395, 7.711544800084084, 7.728352200007066, 7.744972000014968, 7.76154720003251, 7.7787932000355795, 7.7948092999868095, 7.811400200007483, 7.828264800016768, 7.844853800022975, 7.861624200013466, 7.878596900030971, 7.894790600053966, 7.911626600078307, 7.928000600077212, 7.944804899976589, 7.961392599972896, 7.978139000013471, 7.994800699991174, 8.011484900023788, 8.028195600025356, 8.04481830005534, 8.061385300010443, 8.078051000018604, 8.094888900057413, 8.111450399970636, 8.128002200042829, 8.144790400052443, 8.16131660004612, 8.178029200062156, 8.194766300031915, 8.211267800070345, 8.228009200072847, 8.244730900041759, 8.261358499992639, 8.277950500021689, 8.294850500067696, 8.311334499972872, 8.328135800082237, 8.34468730003573, 8.361511699971743, 8.378006500075571, 8.39509700005874, 8.411287700058892, 8.428276400081813, 8.44475040002726, 8.461497800075449, 8.477920099976473, 8.494673300068825, 8.511233799974434, 8.528202000074089, 8.544624499976635, 8.561198099981993, 8.577947300043888, 8.59460090007633, 8.611107800039463, 8.62828070006799, 8.644563500070944, 8.661230999976397, 8.677665599971078, 8.694246900035068, 8.711025300086476, 8.728421100066043, 8.7446850000415, 8.761178400018252, 8.777900699991733, 8.794354900019243, 8.810912600019947, 8.827932300046086, 8.844327799975872, 8.861189900082536, 8.877857199986465, 8.894585600006394, 8.91131650004536, 8.927673400030471, 8.944231100031175, 8.961007800069638, 8.97746590001043, 8.994324999977835, 9.011014900053851, 9.028280099970289, 9.044447600026615, 9.061180400080048, 9.077840300044045, 9.094604199985042, 9.111115999985486, 9.127772400039248, 9.14442330005113, 9.161173000000417, 9.17788129998371, 9.194572200067341, 9.21084970002994, 9.227665600017644, 9.244374900008552, 9.261063900077716, 9.277798500028439, 9.294451800058596, 9.31113250006456, 9.327789500006475, 9.344405699986964, 9.361153200035915, 9.37788929999806, 9.394437600043602, 9.411175400018692, 9.427728199982084, 9.444329900084995, 9.461108000017703, 9.477803600020707, 9.49450190004427, 9.511033600079827, 9.527986100059934, 9.544314600061625, 9.561206600046717, 9.577858200063929, 9.594372999970801, 9.610940800048411, 9.62807790003717, 9.644327000016347, 9.660955699975602, 9.677601200062782, 9.6943855000427, 9.710912200040184, 9.72771880007349, 9.744199000066146, 9.760881400085054, 9.777655999991111, 9.79434